time	DeviceName	AccX(g)	AccY(g)	AccZ(g)	AsX(°/s)	AsY(°/s)	AsZ(°/s)	AngleX(°)	AngleY(°)	AngleZ(°)	HX(uT)	HY(uT)	HZ(uT)	Q0()	Q1()	Q2()	Q3()	Temperature(°C)	Version()	Battery level(%)
2025-5-25 10:6:12.868	WT901BLE68(801231B9234C)	-0.251	0.935	0.149	10.132	2.075	77.209	80.76	19.46	-71.36	-5.782	-39.592	-11.368	-0.50296	-0.60373	0.23505	0.57196	23.5	13111	100
2025-5-25 10:6:12.868	WT901BLE68(801231B9234C)	-0.260	0.946	0.145	11.841	-0.977	81.360	81.06	17.81	-71.03	-5.782	-39.592	-11.368	-0.50296	-0.60373	0.23505	0.57196	23.5	13111	100
2025-5-25 10:6:12.933	WT901BLE68(801231B9234C)	-0.268	0.959	0.145	13.977	-4.456	84.473	81.36	16.12	-70.80	-5.782	-39.592	-11.368	-0.50296	-0.60373	0.23505	0.57196	23.5	13111	100
2025-5-25 10:6:12.933	WT901BLE68(801231B9234C)	-0.283	0.963	0.133	16.052	-7.141	85.938	81.68	14.40	-70.65	-6.860	-38.318	-12.348	-0.50296	-0.60373	0.23505	0.57196	23.5	13111	100
2025-5-25 10:6:12.982	WT901BLE68(801231B9234C)	-0.300	0.971	0.129	18.372	-10.498	86.670	82.02	12.67	-70.59	-6.860	-38.318	-12.348	-0.50296	-0.60373	0.23505	0.57196	23.5	13111	100
2025-5-25 10:6:12.982	WT901BLE68(801231B9234C)	-0.326	0.973	0.126	20.081	-14.343	86.670	82.38	10.96	-70.63	-6.860	-38.318	-12.348	-0.50296	-0.60373	0.23505	0.57196	23.5	13111	100
2025-5-25 10:6:13.4	WT901BLE68(801231B9234C)	-0.354	0.978	0.127	20.996	-20.264	84.778	82.75	9.28	-70.78	-6.860	-38.318	-12.348	-0.50296	-0.60373	0.23505	0.57196	23.5	13111	100
2025-5-25 10:6:13.4	WT901BLE68(801231B9234C)	-0.371	0.980	0.116	20.813	-29.236	80.750	83.11	7.68	-71.14	-6.860	-38.318	-12.348	-0.50296	-0.60373	0.23505	0.57196	23.5	13111	100
2025-5-25 10:6:13.48	WT901BLE68(801231B9234C)	-0.379	0.980	0.099	20.508	-38.696	74.524	83.45	6.20	-71.71	-6.860	-38.318	-12.348	-0.50296	-0.60373	0.23505	0.57196	23.5	13111	100
2025-5-25 10:6:13.48	WT901BLE68(801231B9234C)	-0.379	0.991	0.100	18.982	-45.105	64.758	83.77	4.89	-72.47	-6.860	-38.318	-12.348	-0.50296	-0.60373	0.23505	0.57196	23.5	13111	100
2025-5-25 10:6:13.71	WT901BLE68(801231B9234C)	-0.379	1.024	0.086	17.639	-47.485	53.101	84.06	3.84	-73.34	-6.860	-38.318	-12.348	-0.50296	-0.60373	0.23505	0.57196	23.5	13111	100
2025-5-25 10:6:13.71	WT901BLE68(801231B9234C)	-0.392	1.054	0.067	16.602	-44.617	40.161	84.35	3.04	-74.21	-6.860	-38.318	-12.348	-0.50296	-0.60373	0.23505	0.57196	23.5	13111	100
2025-5-25 10:6:13.122	WT901BLE68(801231B9234C)	-0.407	1.054	0.080	15.747	-37.476	25.452	84.63	2.55	-74.99	-6.860	-38.318	-12.348	-0.50296	-0.60373	0.23505	0.57196	23.5	13111	100
2025-5-25 10:6:13.122	WT901BLE68(801231B9234C)	-0.408	1.045	0.066	15.259	-29.602	8.057	84.91	2.41	-75.65	-6.860	-38.318	-12.348	-0.57138	-0.54300	0.40817	0.46033	23.5	13111	100
2025-5-25 10:6:13.162	WT901BLE68(801231B9234C)	-0.407	1.030	0.070	15.747	-21.179	-9.155	85.19	2.63	-76.18	-6.860	-38.318	-12.348	-0.57138	-0.54300	0.40817	0.46033	23.5	13111	100
2025-5-25 10:6:13.162	WT901BLE68(801231B9234C)	-0.409	0.990	0.066	16.907	-15.442	-28.137	85.50	3.25	-76.59	-6.860	-38.318	-12.348	-0.57138	-0.54300	0.40817	0.46033	23.5	13111	100
2025-5-25 10:6:13.204	WT901BLE68(801231B9234C)	-0.430	0.952	0.087	18.005	-14.893	-45.776	85.83	4.21	-76.98	-6.860	-38.318	-12.348	-0.57138	-0.54300	0.40817	0.46033	23.5	13111	100
2025-5-25 10:6:13.204	WT901BLE68(801231B9234C)	-0.455	0.951	0.067	17.822	-20.081	-63.049	86.14	5.52	-77.45	-6.860	-38.318	-12.348	-0.57138	-0.54300	0.40817	0.46033	23.5	13111	100
2025-5-25 10:6:13.249	WT901BLE68(801231B9234C)	-0.465	0.976	0.057	17.273	-24.536	-73.914	86.43	7.09	-78.04	-6.860	-38.318	-12.348	-0.57138	-0.54300	0.40817	0.46033	23.5	13111	100
2025-5-25 10:6:13.250	WT901BLE68(801231B9234C)	-0.501	0.988	0.054	16.663	-32.166	-81.116	86.67	8.80	-78.74	-6.860	-38.318	-12.348	-0.57138	-0.54300	0.40817	0.46033	23.5	13111	100
2025-5-25 10:6:13.273	WT901BLE68(801231B9234C)	-0.465	1.011	0.084	13.977	-45.593	-90.454	86.82	10.66	-79.69	-6.860	-38.318	-12.348	-0.57138	-0.54300	0.40817	0.46033	23.5	13111	100
2025-5-25 10:6:13.273	WT901BLE68(801231B9234C)	-0.388	1.026	0.079	9.583	-58.533	-98.816	86.80	12.67	-80.93	-6.860	-38.318	-12.348	-0.57138	-0.54300	0.40817	0.46033	23.5	13111	100
2025-5-25 10:6:13.323	WT901BLE68(801231B9234C)	-0.371	1.034	0.065	6.470	-54.321	-105.530	86.64	14.79	-82.25	-6.860	-38.318	-12.348	-0.57138	-0.54300	0.40817	0.46033	23.5	13111	100
2025-5-25 10:6:13.323	WT901BLE68(801231B9234C)	-0.390	1.039	0.064	5.005	-40.710	-110.352	86.46	17.01	-83.36	-14.994	-39.298	-4.312	-0.57138	-0.54300	0.40817	0.46033	23.5	13111	100
2025-5-25 10:6:13.362	WT901BLE68(801231B9234C)	-0.396	1.038	0.071	4.028	-32.898	-114.624	86.28	19.28	-84.25	-14.994	-39.298	-4.312	-0.57138	-0.54300	0.40817	0.46033	23.5	13111	100
2025-5-25 10:6:13.363	WT901BLE68(801231B9234C)	-0.360	1.029	0.073	2.502	-34.302	-117.371	86.04	21.59	-85.14	-14.994	-39.298	-4.312	-0.57138	-0.54300	0.40817	0.46033	23.5	13111	100
2025-5-25 10:6:13.407	WT901BLE68(801231B9234C)	-0.327	1.020	0.069	1.038	-35.156	-117.371	85.72	23.89	-86.09	-14.994	-39.298	-4.312	-0.57138	-0.54300	0.40817	0.46033	23.5	13111	100
2025-5-25 10:6:13.407	WT901BLE68(801231B9234C)	-0.304	0.996	0.070	0.244	-33.997	-114.624	85.34	26.11	-87.07	-14.994	-39.298	-4.312	-0.57138	-0.54300	0.40817	0.46033	23.5	13111	100
2025-5-25 10:6:13.452	WT901BLE68(801231B9234C)	-0.286	0.960	0.082	0.000	-31.738	-109.009	84.94	28.20	-88.02	-14.994	-39.298	-4.312	-0.57138	-0.54300	0.40817	0.46033	23.5	13111	100
2025-5-25 10:6:13.453	WT901BLE68(801231B9234C)	-0.277	0.929	0.102	-0.977	-29.419	-101.440	84.51	30.13	-88.94	-14.994	-39.298	-4.312	-0.57138	-0.54300	0.40817	0.46033	23.5	13111	100
2025-5-25 10:6:13.476	WT901BLE68(801231B9234C)	-0.276	0.903	0.092	-2.258	-28.870	-91.614	84.03	31.85	-89.86	-14.994	-39.298	-4.312	-0.57138	-0.54300	0.40817	0.46033	23.5	13111	100
2025-5-25 10:6:13.476	WT901BLE68(801231B9234C)	-0.259	0.958	0.079	-2.930	-28.931	-75.012	83.51	33.27	-90.80	-14.994	-39.298	-4.312	-0.57138	-0.54300	0.40817	0.46033	23.5	13111	100
2025-5-25 10:6:13.523	WT901BLE68(801231B9234C)	-0.254	1.002	0.089	-3.723	-23.987	-54.016	83.02	34.26	-91.65	-14.994	-39.298	-4.312	-0.57138	-0.54300	0.40817	0.46033	23.5	13111	100
2025-5-25 10:6:13.523	WT901BLE68(801231B9234C)	-0.247	0.965	0.102	-3.540	-19.409	-36.743	82.61	34.87	-92.36	-14.994	-39.298	-4.312	-0.35114	-0.59677	0.30444	0.65405	23.5	13111	100
2025-5-25 10:6:13.566	WT901BLE68(801231B9234C)	-0.239	0.981	0.098	-2.747	-20.691	-18.738	82.24	35.12	-93.02	-14.994	-39.298	-4.312	-0.35114	-0.59677	0.30444	0.65405	23.5	13111	100
2025-5-25 10:6:13.566	WT901BLE68(801231B9234C)	-0.218	1.018	0.110	-2.747	-24.231	-1.221	81.87	34.99	-93.72	-14.994	-39.298	-4.312	-0.35114	-0.59677	0.30444	0.65405	23.5	13111	100
2025-5-25 10:6:13.609	WT901BLE68(801231B9234C)	-0.193	0.988	0.141	-2.991	-29.663	9.460	81.46	34.58	-94.51	-14.994	-39.298	-4.312	-0.35114	-0.59677	0.30444	0.65405	23.5	13111	100
2025-5-25 10:6:13.609	WT901BLE68(801231B9234C)	-0.168	1.028	0.167	-4.517	-37.781	18.188	80.94	33.96	-95.48	-14.994	-39.298	-4.312	-0.35114	-0.59677	0.30444	0.65405	23.5	13111	100
2025-5-25 10:6:13.655	WT901BLE68(801231B9234C)	-0.155	1.055	0.181	-7.629	-37.537	30.518	80.36	33.11	-96.54	-14.994	-39.298	-4.312	-0.35114	-0.59677	0.30444	0.65405	23.5	13111	100
2025-5-25 10:6:13.655	WT901BLE68(801231B9234C)	-0.149	1.053	0.184	-10.986	-33.325	41.748	79.78	32.03	-97.50	-14.994	-39.298	-4.312	-0.35114	-0.59677	0.30444	0.65405	23.5	13111	100
2025-5-25 10:6:13.679	WT901BLE68(801231B9234C)	-0.128	1.063	0.175	-14.282	-26.062	54.810	79.26	30.72	-98.28	-14.994	-39.298	-4.312	-0.35114	-0.59677	0.30444	0.65405	23.5	13111	100
2025-5-25 10:6:13.679	WT901BLE68(801231B9234C)	-0.101	1.081	0.168	-17.761	-13.123	67.017	78.82	29.21	-98.78	-14.994	-39.298	-4.312	-0.35114	-0.59677	0.30444	0.65405	23.5	13111	100
2025-5-25 10:6:13.723	WT901BLE68(801231B9234C)	-0.077	1.104	0.161	-22.339	6.775	75.989	78.52	27.56	-98.84	-14.994	-39.298	-4.312	-0.35114	-0.59677	0.30444	0.65405	23.5	13111	100
2025-5-25 10:6:13.723	WT901BLE68(801231B9234C)	-0.072	1.080	0.152	-27.588	34.241	79.468	78.37	25.91	-98.33	-0.784	-41.258	-1.176	-0.35114	-0.59677	0.30444	0.65405	23.5	13111	100
2025-5-25 10:6:13.769	WT901BLE68(801231B9234C)	-0.101	1.025	0.132	-32.349	63.721	77.026	78.35	24.38	-97.21	-0.784	-41.258	-1.176	-0.35114	-0.59677	0.30444	0.65405	23.5	13111	100
2025-5-25 10:6:13.769	WT901BLE68(801231B9234C)	-0.130	1.000	0.111	-36.255	86.975	72.693	78.43	23.03	-95.52	-0.784	-41.258	-1.176	-0.35114	-0.59677	0.30444	0.65405	23.5	13111	100
2025-5-25 10:6:13.812	WT901BLE68(801231B9234C)	-0.172	1.010	0.085	-38.330	103.027	68.298	78.56	21.86	-93.42	-0.784	-41.258	-1.176	-0.35114	-0.59677	0.30444	0.65405	23.5	13111	100
2025-5-25 10:6:13.812	WT901BLE68(801231B9234C)	-0.172	1.054	0.065	-43.457	105.896	60.913	78.60	20.86	-91.15	-0.784	-41.258	-1.176	-0.35114	-0.59677	0.30444	0.65405	23.5	13111	100
2025-5-25 10:6:13.836	WT901BLE68(801231B9234C)	-0.182	1.092	0.045	-45.471	108.948	57.373	78.60	19.96	-88.79	-0.784	-41.258	-1.176	-0.35114	-0.59677	0.30444	0.65405	23.5	13111	100
2025-5-25 10:6:13.836	WT901BLE68(801231B9234C)	-0.183	1.118	0.035	-44.922	109.314	55.969	78.56	19.14	-86.39	-0.784	-41.258	-1.176	-0.35114	-0.59677	0.30444	0.65405	23.5	13111	100
2025-5-25 10:6:13.880	WT901BLE68(801231B9234C)	-0.186	1.083	0.021	-42.480	109.863	55.908	78.54	18.34	-83.93	-0.784	-41.258	-1.176	-0.35114	-0.59677	0.30444	0.65405	23.5	13111	100
2025-5-25 10:6:13.880	WT901BLE68(801231B9234C)	-0.197	0.998	0.025	-37.903	109.741	55.847	78.57	17.55	-81.45	-0.784	-41.258	-1.176	-0.35114	-0.59677	0.30444	0.65405	23.5	13111	100
2025-5-25 10:6:13.924	WT901BLE68(801231B9234C)	-0.211	0.917	0.035	-32.959	107.178	55.481	78.66	16.78	-79.00	-0.784	-41.258	-1.176	-0.35114	-0.59677	0.30444	0.65405	23.5	13111	100
2025-5-25 10:6:13.924	WT901BLE68(801231B9234C)	-0.224	0.852	0.052	-28.076	101.563	55.115	78.79	16.01	-76.64	-0.784	-41.258	-1.176	-0.55487	-0.56317	0.30676	0.52985	23.5	13111	100
2025-5-25 10:6:13.969	WT901BLE68(801231B9234C)	-0.224	0.811	0.044	-23.865	91.797	56.335	78.93	15.21	-74.47	-0.784	-41.258	-1.176	-0.55487	-0.56317	0.30676	0.52985	23.5	13111	100
2025-5-25 10:6:13.969	WT901BLE68(801231B9234C)	-0.223	0.793	0.034	-19.226	81.726	61.340	79.07	14.32	-72.51	-0.784	-41.258	-1.176	-0.55487	-0.56317	0.30676	0.52985	23.5	13111	100
2025-5-25 10:6:14.23	WT901BLE68(801231B9234C)	-0.220	0.787	0.031	-14.465	72.510	68.909	79.24	13.28	-70.74	-0.784	-41.258	-1.176	-0.55487	-0.56317	0.30676	0.52985	23.5	13111	100
2025-5-25 10:6:14.24	WT901BLE68(801231B9234C)	-0.215	0.789	0.041	-9.644	65.918	78.491	79.44	12.05	-69.10	-0.784	-41.258	-1.176	-0.55487	-0.56317	0.30676	0.52985	23.5	13111	100
2025-5-25 10:6:14.38	WT901BLE68(801231B9234C)	-0.195	0.798	0.068	-5.676	62.622	87.952	79.68	10.63	-67.55	-0.784	-41.258	-1.176	-0.55487	-0.56317	0.30676	0.52985	23.5	13111	100
2025-5-25 10:6:14.39	WT901BLE68(801231B9234C)	-0.195	0.829	0.075	-1.709	66.101	99.121	79.94	9.03	-65.99	-0.784	-41.258	-1.176	-0.55487	-0.56317	0.30676	0.52985	23.5	13111	100
2025-5-25 10:6:14.106	WT901BLE68(801231B9234C)	-0.216	0.843	0.083	4.456	76.111	110.901	80.29	7.23	-64.27	-0.784	-41.258	-1.176	-0.55487	-0.56317	0.30676	0.52985	23.5	13111	100
2025-5-25 10:6:14.106	WT901BLE68(801231B9234C)	-0.281	0.853	0.133	11.536	85.449	122.253	80.73	5.25	-62.36	-0.784	-41.258	-1.176	-0.55487	-0.56317	0.30676	0.52985	23.5	13111	100
2025-5-25 10:6:14.128	WT901BLE68(801231B9234C)	-0.332	0.867	0.187	16.479	81.116	128.601	81.21	3.11	-60.47	-0.784	-41.258	-1.176	-0.55487	-0.56317	0.30676	0.52985	23.5	13111	100
2025-5-25 10:6:14.129	WT901BLE68(801231B9234C)	-0.367	0.853	0.239	20.874	65.430	133.362	81.67	0.86	-58.88	-11.956	-35.476	-9.408	-0.55487	-0.56317	0.30676	0.52985	23.5	13111	100
2025-5-25 10:6:14.174	WT901BLE68(801231B9234C)	-0.435	0.832	0.334	23.987	39.612	133.057	82.14	-1.45	-57.78	-11.956	-35.476	-9.408	-0.55487	-0.56317	0.30676	0.52985	23.5	13111	100
2025-5-25 10:6:14.175	WT901BLE68(801231B9234C)	-0.477	0.845	0.419	23.315	-0.671	126.953	82.60	-3.73	-57.46	-11.956	-35.476	-9.408	-0.55487	-0.56317	0.30676	0.52985	23.5	13111	100
2025-5-25 10:6:14.224	WT901BLE68(801231B9234C)	-0.430	0.915	0.453	23.499	-50.293	119.507	83.08	-5.93	-58.16	-11.956	-35.476	-9.408	-0.55487	-0.56317	0.30676	0.52985	23.5	13111	100
2025-5-25 10:6:14.224	WT901BLE68(801231B9234C)	-0.401	1.053	0.459	25.818	-83.801	109.985	83.73	-7.99	-59.74	-11.956	-35.476	-9.408	-0.55487	-0.56317	0.30676	0.52985	23.5	13111	100
2025-5-25 10:6:14.242	WT901BLE68(801231B9234C)	-0.345	1.126	0.444	19.348	-105.408	100.037	84.41	-9.87	-61.90	-11.956	-35.476	-9.408	-0.55487	-0.56317	0.30676	0.52985	23.5	13111	100
2025-5-25 10:6:14.242	WT901BLE68(801231B9234C)	-0.317	1.231	0.398	16.418	-107.910	77.881	85.10	-11.38	-64.31	-11.956	-35.476	-9.408	-0.55487	-0.56317	0.30676	0.52985	23.5	13111	100
2025-5-25 10:6:14.285	WT901BLE68(801231B9234C)	-0.323	1.285	0.362	5.249	-89.844	52.490	85.65	-12.37	-66.54	-11.956	-35.476	-9.408	-0.55487	-0.56317	0.30676	0.52985	23.5	13111	100
2025-5-25 10:6:14.285	WT901BLE68(801231B9234C)	-0.319	1.251	0.367	-6.836	-67.322	17.700	85.86	-12.70	-68.35	-11.956	-35.476	-9.408	-0.55487	-0.56317	0.30676	0.52985	23.5	13111	100
2025-5-25 10:6:14.330	WT901BLE68(801231B9234C)	-0.269	1.310	0.336	-15.808	-49.622	-22.766	85.80	-12.23	-69.80	-11.956	-35.476	-9.408	-0.55487	-0.56317	0.30676	0.52985	23.5	13111	100
2025-5-25 10:6:14.330	WT901BLE68(801231B9234C)	-0.222	1.354	0.297	-25.818	-36.133	-57.434	85.48	-11.03	-71.00	-11.956	-35.476	-9.408	-0.55487	-0.56317	0.30676	0.52985	23.5	13111	100
2025-5-25 10:6:14.377	WT901BLE68(801231B9234C)	-0.232	1.309	0.272	-37.476	-22.156	-89.355	84.88	-9.20	-71.97	-11.956	-35.476	-9.408	-0.62631	-0.51004	0.44769	0.38348	23.5	13111	100
2025-5-25 10:6:14.377	WT901BLE68(801231B9234C)	-0.209	1.194	0.251	-45.532	-10.254	-116.150	84.04	-6.82	-72.76	-11.956	-35.476	-9.408	-0.62631	-0.51004	0.44769	0.38348	23.5	13111	100
2025-5-25 10:6:14.424	WT901BLE68(801231B9234C)	-0.216	1.095	0.223	-47.668	0.549	-137.695	83.09	-4.00	-73.41	-11.956	-35.476	-9.408	-0.62631	-0.51004	0.44769	0.38348	23.5	13111	100
2025-5-25 10:6:14.424	WT901BLE68(801231B9234C)	-0.273	1.070	0.180	-47.668	8.423	-147.278	82.08	-0.94	-73.95	-11.956	-35.476	-9.408	-0.62631	-0.51004	0.44769	0.38348	23.5	13111	100
2025-5-25 10:6:14.444	WT901BLE68(801231B9234C)	-0.311	1.087	0.139	-44.250	3.479	-153.381	81.13	2.24	-74.56	-11.956	-35.476	-9.408	-0.62631	-0.51004	0.44769	0.38348	23.5	13111	100
2025-5-25 10:6:14.444	WT901BLE68(801231B9234C)	-0.312	1.115	0.109	-39.856	-16.296	-151.123	80.24	5.36	-75.51	-11.956	-35.476	-9.408	-0.62631	-0.51004	0.44769	0.38348	23.5	13111	100
2025-5-25 10:6:14.486	WT901BLE68(801231B9234C)	-0.323	1.128	0.071	-37.964	-49.500	-145.020	79.30	8.26	-77.09	-11.956	-35.476	-9.408	-0.62631	-0.51004	0.44769	0.38348	23.5	13111	100
2025-5-25 10:6:14.486	WT901BLE68(801231B9234C)	-0.313	1.163	0.062	-37.720	-78.369	-136.902	78.29	10.81	-79.22	-11.956	-35.476	-9.408	-0.62631	-0.51004	0.44769	0.38348	23.5	13111	100
2025-5-25 10:6:14.532	WT901BLE68(801231B9234C)	-0.265	1.189	0.038	-39.429	-108.704	-129.150	77.08	13.01	-81.99	-11.956	-35.476	-9.408	-0.62631	-0.51004	0.44769	0.38348	23.5	13111	100
2025-5-25 10:6:14.532	WT901BLE68(801231B9234C)	-0.167	1.221	0.011	-43.213	-128.723	-123.596	75.61	14.89	-85.26	-11.956	-35.476	-9.408	-0.62631	-0.51004	0.44769	0.38348	23.5	13111	100
2025-5-25 10:6:14.599	WT901BLE68(801231B9234C)	-0.099	1.225	-0.009	-46.875	-126.160	-122.375	73.97	16.57	-88.69	-11.956	-35.476	-9.408	-0.62631	-0.51004	0.44769	0.38348	23.5	13111	100
2025-5-25 10:6:14.599	WT901BLE68(801231B9234C)	-0.063	1.186	-0.020	-48.157	-105.530	-124.878	72.27	18.23	-91.86	-11.956	-35.476	-9.408	-0.62631	-0.51004	0.44769	0.38348	23.5	13111	100
2025-5-25 10:6:14.600	WT901BLE68(801231B9234C)	-0.054	1.145	-0.039	-48.889	-73.669	-128.296	70.66	20.01	-94.53	-11.956	-35.476	-9.408	-0.62631	-0.51004	0.44769	0.38348	23.5	13111	100
2025-5-25 10:6:14.600	WT901BLE68(801231B9234C)	-0.068	1.083	-0.046	-47.302	-35.339	-130.310	69.23	21.98	-96.49	-11.956	-35.476	-9.408	-0.62631	-0.51004	0.44769	0.38348	23.5	13111	100
2025-5-25 10:6:14.645	WT901BLE68(801231B9234C)	-0.099	1.023	-0.032	-42.969	-1.343	-131.958	68.10	24.18	-97.68	-11.956	-35.476	-9.408	-0.62631	-0.51004	0.44769	0.38348	23.5	13111	100
2025-5-25 10:6:14.645	WT901BLE68(801231B9234C)	-0.138	0.982	-0.000	-37.659	22.034	-134.705	67.29	26.66	-97.96	-11.956	-35.476	-9.408	-0.62631	-0.51004	0.44769	0.38348	23.5	13111	100
2025-5-25 10:6:14.690	WT901BLE68(801231B9234C)	-0.155	0.934	0.012	-33.142	33.386	-136.841	66.71	29.49	-97.26	-11.956	-35.476	-9.408	-0.62631	-0.51004	0.44769	0.38348	23.5	13111	100
2025-5-25 10:6:14.690	WT901BLE68(801231B9234C)	-0.164	0.879	0.025	-28.198	35.645	-135.742	66.26	32.42	-96.32	-11.956	-35.476	-9.408	-0.62631	-0.51004	0.44769	0.38348	23.5	13111	100
2025-5-25 10:6:14.758	WT901BLE68(801231B9234C)	-0.165	0.826	0.039	-23.010	32.776	-132.080	65.90	35.30	-95.37	-11.956	-35.476	-9.408	-0.62631	-0.51004	0.44769	0.38348	23.5	13111	100
2025-5-25 10:6:14.759	WT901BLE68(801231B9234C)	-0.157	0.788	0.059	-18.982	27.649	-127.075	65.60	38.07	-94.44	-11.956	-35.476	-9.408	-0.62631	-0.51004	0.44769	0.38348	23.5	13111	100
2025-5-25 10:6:14.781	WT901BLE68(801231B9234C)	-0.155	0.766	0.076	-15.930	21.484	-120.239	65.30	40.67	-93.61	-11.956	-35.476	-9.408	-0.62631	-0.51004	0.44769	0.38348	23.5	13111	100
2025-5-25 10:6:14.781	WT901BLE68(801231B9234C)	-0.153	0.766	0.081	-12.573	13.672	-110.168	65.02	43.05	-92.84	-11.956	-35.476	-9.408	-0.62631	-0.51004	0.44769	0.38348	23.5	13111	100
2025-5-25 10:6:14.804	WT901BLE68(801231B9234C)	-0.146	0.797	0.086	-8.789	8.850	-95.459	64.79	45.13	-92.08	-11.956	-35.476	-9.408	-0.62631	-0.51004	0.44769	0.38348	23.5	13111	100
2025-5-25 10:6:14.804	WT901BLE68(801231B9234C)	-0.147	0.841	0.102	-3.479	4.822	-75.256	64.74	46.83	-91.20	-11.956	-35.476	-9.408	-0.62631	-0.51004	0.44769	0.38348	23.7	13111	100
2025-5-25 10:6:14.849	WT901BLE68(801231B9234C)	-0.182	0.890	0.128	2.197	1.160	-52.002	64.93	48.09	-90.14	-11.956	-35.476	-9.408	-0.62631	-0.51004	0.44769	0.38348	23.7	13111	100
2025-5-25 10:6:14.849	WT901BLE68(801231B9234C)	-0.109	0.892	0.161	6.104	-5.127	-29.541	65.36	48.85	-88.89	-11.956	-35.476	-9.408	-0.62631	-0.51004	0.44769	0.38348	23.7	13111	100
2025-5-25 10:6:14.892	WT901BLE68(801231B9234C)	-0.129	0.891	0.164	17.212	-5.798	4.517	66.14	49.02	-87.41	-11.956	-35.476	-9.408	-0.62631	-0.51004	0.44769	0.38348	23.7	13111	100
2025-5-25 10:6:14.892	WT901BLE68(801231B9234C)	-0.116	1.008	0.156	27.466	-2.930	38.635	67.45	48.59	-85.47	-11.956	-35.476	-9.408	-0.62631	-0.51004	0.44769	0.38348	23.7	13111	100
2025-5-25 10:6:14.960	WT901BLE68(801231B9234C)	-0.138	1.090	0.132	42.236	6.775	80.688	69.45	47.43	-82.94	-11.956	-35.476	-9.408	-0.62631	-0.51004	0.44769	0.38348	23.7	13111	100
2025-5-25 10:6:14.960	WT901BLE68(801231B9234C)	-0.187	1.039	0.159	59.753	16.724	117.798	72.13	45.52	-79.91	-11.956	-35.476	-9.408	-0.62631	-0.51004	0.44769	0.38348	23.7	13111	100
2025-5-25 10:6:14.981	WT901BLE68(801231B9234C)	-0.247	0.934	0.211	76.965	15.381	149.414	75.15	42.93	-76.78	-11.956	-35.476	-9.408	-0.62631	-0.51004	0.44769	0.38348	23.7	13111	100
2025-5-25 10:6:14.981	WT901BLE68(801231B9234C)	-0.311	0.991	0.280	91.187	-4.517	176.086	78.07	39.63	-74.13	-11.956	-35.476	-9.408	-0.62631	-0.51004	0.44769	0.38348	23.7	13111	100
2025-5-25 10:6:15.6	WT901BLE68(801231B9234C)	-0.316	1.095	0.372	96.436	-41.870	192.810	80.46	35.73	-72.45	-11.956	-35.476	-9.408	-0.62631	-0.51004	0.44769	0.38348	23.7	13111	100
2025-5-25 10:6:15.6	WT901BLE68(801231B9234C)	-0.189	1.163	0.447	92.102	-86.121	193.420	82.09	31.56	-72.00	-11.956	-35.476	-9.408	-0.62631	-0.51004	0.44769	0.38348	23.7	13111	100
2025-5-25 10:6:15.51	WT901BLE68(801231B9234C)	0.082	1.227	0.455	82.703	-102.356	179.443	83.12	27.50	-72.41	13.230	-27.048	-8.526	-0.62631	-0.51004	0.44769	0.38348	23.7	13111	100
2025-5-25 10:6:15.51	WT901BLE68(801231B9234C)	0.234	1.418	0.345	59.204	-25.696	168.579	84.38	23.86	-71.89	13.230	-27.048	-8.526	-0.62631	-0.51004	0.44769	0.38348	23.7	13111	100
2025-5-25 10:6:15.124	WT901BLE68(801231B9234C)	0.212	1.271	0.181	32.471	72.205	155.640	85.66	20.52	-69.53	13.230	-27.048	-8.526	-0.62631	-0.51004	0.44769	0.38348	23.7	13111	100
2025-5-25 10:6:15.124	WT901BLE68(801231B9234C)	0.012	1.252	0.035	28.625	164.551	132.874	87.33	17.67	-65.23	13.230	-27.048	-8.526	-0.62631	-0.51004	0.44769	0.38348	23.7	13111	100
2025-5-25 10:6:15.142	WT901BLE68(801231B9234C)	-0.225	1.269	0.032	19.409	213.440	108.093	89.07	15.22	-59.74	13.230	-27.048	-8.526	-0.62631	-0.51004	0.44769	0.38348	23.7	13111	100
2025-5-25 10:6:15.142	WT901BLE68(801231B9234C)	-0.409	1.246	0.064	2.991	223.328	79.529	90.41	13.23	-53.96	13.230	-27.048	-8.526	-0.62631	-0.51004	0.44769	0.38348	23.7	13111	100
2025-5-25 10:6:15.184	WT901BLE68(801231B9234C)	-0.476	1.160	0.073	-11.230	205.200	62.317	91.19	11.63	-48.51	13.230	-27.048	-8.526	-0.62631	-0.51004	0.44769	0.38348	23.7	13111	100
2025-5-25 10:6:15.185	WT901BLE68(801231B9234C)	-0.360	1.070	0.045	-19.592	170.105	53.223	91.47	10.28	-43.91	13.230	-27.048	-8.526	-0.62631	-0.51004	0.44769	0.38348	23.7	13111	100
2025-5-25 10:6:15.209	WT901BLE68(801231B9234C)	-0.406	1.753	-0.102	-13.855	137.634	64.270	91.44	9.08	-40.42	13.230	-27.048	-8.526	-0.62631	-0.51004	0.44769	0.38348	23.7	13111	100
2025-5-25 10:6:15.209	WT901BLE68(801231B9234C)	-0.366	0.910	0.001	-24.048	105.896	56.641	91.14	7.94	-37.99	13.230	-27.048	-8.526	-0.62631	-0.51004	0.44769	0.38348	23.7	13111	100
2025-5-25 10:6:15.253	WT901BLE68(801231B9234C)	-0.314	0.866	0.010	-23.804	72.327	59.387	90.82	6.83	-36.41	13.230	-27.048	-8.526	-0.65387	-0.68948	0.18680	0.24905	23.7	13111	100
2025-5-25 10:6:15.253	WT901BLE68(801231B9234C)	-0.308	0.856	0.008	-14.587	57.312	67.200	90.54	5.64	-35.44	13.230	-27.048	-8.526	-0.65387	-0.68948	0.18680	0.24905	23.7	13111	100
2025-5-25 10:6:15.297	WT901BLE68(801231B9234C)	-0.291	0.850	0.014	-10.742	43.030	73.120	90.34	4.38	-34.80	13.230	-27.048	-8.526	-0.65387	-0.68948	0.18680	0.24905	23.7	13111	100
2025-5-25 10:6:15.298	WT901BLE68(801231B9234C)	-0.278	0.848	0.008	-5.432	33.875	84.961	90.23	2.92	-34.42	13.230	-27.048	-8.526	-0.65387	-0.68948	0.18680	0.24905	23.7	13111	100
2025-5-25 10:6:15.342	WT901BLE68(801231B9234C)	-0.259	0.870	0.016	0.305	28.503	93.262	90.22	1.30	-34.20	13.230	-27.048	-8.526	-0.65387	-0.68948	0.18680	0.24905	23.7	13111	100
2025-5-25 10:6:15.343	WT901BLE68(801231B9234C)	-0.278	0.892	0.057	5.920	27.283	100.525	90.32	-0.46	-34.08	13.230	-27.048	-8.526	-0.65387	-0.68948	0.18680	0.24905	23.7	13111	100
2025-5-25 10:6:15.366	WT901BLE68(801231B9234C)	-0.320	0.876	0.074	10.437	24.353	102.112	90.53	-2.28	-34.06	13.230	-27.048	-8.526	-0.65387	-0.68948	0.18680	0.24905	23.7	13111	100
2025-5-25 10:6:15.366	WT901BLE68(801231B9234C)	-0.378	0.872	0.113	14.099	22.949	103.149	90.80	-4.09	-34.12	13.230	-27.048	-8.526	-0.65387	-0.68948	0.18680	0.24905	23.7	13111	100
2025-5-25 10:6:15.410	WT901BLE68(801231B9234C)	-0.450	0.881	0.164	17.517	17.273	104.309	91.15	-5.89	-34.33	13.230	-27.048	-8.526	-0.65387	-0.68948	0.18680	0.24905	23.7	13111	100
2025-5-25 10:6:15.411	WT901BLE68(801231B9234C)	-0.491	0.905	0.212	20.142	1.038	101.013	91.59	-7.63	-34.84	13.230	-27.048	-8.526	-0.65387	-0.68948	0.18680	0.24905	23.7	13111	100
2025-5-25 10:6:15.455	WT901BLE68(801231B9234C)	-0.559	0.958	0.249	23.743	-25.391	92.651	92.16	-9.17	-35.85	13.230	-27.048	-8.526	-0.65387	-0.68948	0.18680	0.24905	23.7	13111	100
2025-5-25 10:6:15.455	WT901BLE68(801231B9234C)	-0.580	1.044	0.282	23.499	-53.772	70.679	92.86	-10.32	-37.45	-1.666	-31.850	-3.822	-0.65387	-0.68948	0.18680	0.24905	23.7	13111	100
2025-5-25 10:6:15.500	WT901BLE68(801231B9234C)	-0.561	1.123	0.288	22.766	-82.825	38.818	93.66	-10.79	-39.60	-1.666	-31.850	-3.822	-0.65387	-0.68948	0.18680	0.24905	23.7	13111	100
2025-5-25 10:6:15.500	WT901BLE68(801231B9234C)	-0.414	1.251	0.264	20.569	-110.962	-1.526	94.53	-10.46	-42.27	-1.666	-31.850	-3.822	-0.65387	-0.68948	0.18680	0.24905	23.7	13111	100
2025-5-25 10:6:15.544	WT901BLE68(801231B9234C)	-0.265	1.229	0.235	15.076	-132.263	-38.208	95.33	-9.29	-45.30	-1.666	-31.850	-3.822	-0.65387	-0.68948	0.18680	0.24905	23.7	13111	100
2025-5-25 10:6:15.545	WT901BLE68(801231B9234C)	-0.197	1.322	0.212	8.728	-134.338	-68.176	95.93	-7.45	-48.41	-1.666	-31.850	-3.822	-0.65387	-0.68948	0.18680	0.24905	23.7	13111	100
2025-5-25 10:6:15.568	WT901BLE68(801231B9234C)	-0.204	1.347	0.208	-3.967	-113.525	-91.797	96.15	-5.14	-51.12	-1.666	-31.850	-3.822	-0.65387	-0.68948	0.18680	0.24905	23.7	13111	100
2025-5-25 10:6:15.569	WT901BLE68(801231B9234C)	-0.223	1.335	0.209	-14.832	-84.900	-107.849	95.95	-2.58	-53.21	-1.666	-31.850	-3.822	-0.65387	-0.68948	0.18680	0.24905	23.7	13111	100
2025-5-25 10:6:15.623	WT901BLE68(801231B9234C)	-0.244	1.277	0.209	-24.292	-64.941	-117.676	95.45	0.09	-54.73	-1.666	-31.850	-3.822	-0.65387	-0.68948	0.18680	0.24905	23.7	13111	100
2025-5-25 10:6:15.623	WT901BLE68(801231B9234C)	-0.255	1.151	0.222	-33.691	-56.274	-122.253	94.71	2.71	-55.98	-1.666	-31.850	-3.822	-0.65387	-0.68948	0.18680	0.24905	23.7	13111	100
2025-5-25 10:6:15.657	WT901BLE68(801231B9234C)	-0.265	1.103	0.204	-37.170	-59.082	-134.338	93.78	5.55	-57.16	-1.666	-31.850	-3.822	-0.57516	-0.65652	0.31540	0.37228	23.7	13111	100
2025-5-25 10:6:15.658	WT901BLE68(801231B9234C)	-0.260	1.130	0.172	-41.138	-72.083	-144.653	92.71	8.56	-58.49	-1.666	-31.850	-3.822	-0.57516	-0.65652	0.31540	0.37228	23.7	13111	100
2025-5-25 10:6:15.702	WT901BLE68(801231B9234C)	-0.249	1.149	0.137	-44.556	-89.050	-148.682	91.45	11.64	-60.11	-1.666	-31.850	-3.822	-0.57516	-0.65652	0.31540	0.37228	23.7	13111	100
2025-5-25 10:6:15.702	WT901BLE68(801231B9234C)	-0.241	1.210	0.088	-47.974	-108.948	-147.278	89.96	14.66	-62.09	-1.666	-31.850	-3.822	-0.57516	-0.65652	0.31540	0.37228	23.7	13111	100
2025-5-25 10:6:15.747	WT901BLE68(801231B9234C)	-0.222	1.285	0.041	-52.246	-126.648	-139.832	88.20	17.46	-64.46	-1.666	-31.850	-3.822	-0.57516	-0.65652	0.31540	0.37228	23.7	13111	100
2025-5-25 10:6:15.748	WT901BLE68(801231B9234C)	-0.183	1.315	0.011	-57.251	-138.550	-129.150	86.14	19.93	-67.12	-1.666	-31.850	-3.822	-0.57516	-0.65652	0.31540	0.37228	23.7	13111	100
2025-5-25 10:6:15.771	WT901BLE68(801231B9234C)	-0.120	1.296	0.025	-63.782	-140.686	-121.033	83.82	22.07	-69.93	-1.666	-31.850	-3.822	-0.57516	-0.65652	0.31540	0.37228	23.7	13111	100
2025-5-25 10:6:15.771	WT901BLE68(801231B9234C)	-0.064	1.248	0.021	-70.618	-127.808	-117.981	81.32	23.99	-72.63	-1.666	-31.850	-3.822	-0.57516	-0.65652	0.31540	0.37228	23.7	13111	100
2025-5-25 10:6:15.840	WT901BLE68(801231B9234C)	-0.024	1.165	-0.001	-74.707	-100.403	-118.774	78.83	25.82	-74.89	-1.666	-31.850	-3.822	-0.57516	-0.65652	0.31540	0.37228	23.7	13111	100
2025-5-25 10:6:15.840	WT901BLE68(801231B9234C)	-0.007	1.080	-0.016	-76.294	-62.927	-121.094	76.53	27.71	-76.48	-1.666	-31.850	-3.822	-0.57516	-0.65652	0.31540	0.37228	23.7	13111	100
2025-5-25 10:6:15.862	WT901BLE68(801231B9234C)	-0.038	1.000	-0.008	-75.378	-23.254	-124.756	74.56	29.77	-77.26	-2.548	-30.576	-19.600	-0.57516	-0.65652	0.31540	0.37228	23.7	13111	100
2025-5-25 10:6:15.862	WT901BLE68(801231B9234C)	-0.095	0.947	0.001	-73.547	8.545	-129.150	72.97	32.04	-77.34	-2.548	-30.576	-19.600	-0.57516	-0.65652	0.31540	0.37228	23.7	13111	100
2025-5-25 10:6:15.905	WT901BLE68(801231B9234C)	-0.127	0.909	-0.010	-71.106	27.832	-130.737	71.67	34.48	-76.94	-2.548	-30.576	-19.600	-0.57516	-0.65652	0.31540	0.37228	23.7	13111	100
2025-5-25 10:6:15.906	WT901BLE68(801231B9234C)	-0.129	0.875	-0.024	-68.237	36.682	-128.479	70.59	36.96	-76.27	-2.548	-30.576	-19.600	-0.57516	-0.65652	0.31540	0.37228	23.7	13111	100
2025-5-25 10:6:15.950	WT901BLE68(801231B9234C)	-0.134	0.831	-0.038	-63.416	41.016	-123.596	69.69	39.39	-75.45	-2.548	-30.576	-19.600	-0.57516	-0.65652	0.31540	0.37228	23.7	13111	100
2025-5-25 10:6:15.950	WT901BLE68(801231B9234C)	-0.131	0.791	-0.036	-59.143	40.344	-117.065	68.96	41.72	-74.54	-2.548	-30.576	-19.600	-0.57516	-0.65652	0.31540	0.37228	23.7	13111	100
2025-5-25 10:6:15.974	WT901BLE68(801231B9234C)	-0.152	0.734	-0.044	-49.438	42.664	-108.887	68.47	43.89	-73.53	-2.548	-30.576	-19.600	-0.57516	-0.65652	0.31540	0.37228	23.7	13111	100
2025-5-25 10:6:15.975	WT901BLE68(801231B9234C)	-0.139	0.721	-0.033	-42.969	38.879	-99.304	68.21	45.90	-72.43	-2.548	-30.576	-19.600	-0.57516	-0.65652	0.31540	0.37228	23.7	13111	100
2025-5-25 10:6:16.22	WT901BLE68(801231B9234C)	-0.153	0.719	-0.031	-31.128	38.574	-81.848	68.21	47.60	-71.23	-2.548	-30.576	-19.600	-0.57516	-0.65652	0.31540	0.37228	23.7	13111	100
2025-5-25 10:6:16.23	WT901BLE68(801231B9234C)	-0.150	0.748	-0.021	-21.301	34.485	-62.378	68.57	48.94	-69.83	-2.548	-30.576	-19.600	-0.57516	-0.65652	0.31540	0.37228	23.7	13111	100
2025-5-25 10:6:16.62	WT901BLE68(801231B9234C)	-0.139	0.775	-0.011	-11.658	32.959	-36.255	69.29	49.81	-68.20	-2.548	-30.576	-19.600	-0.48517	-0.62640	0.00339	0.61002	23.7	13111	100
2025-5-25 10:6:16.63	WT901BLE68(801231B9234C)	-0.139	0.812	0.016	-1.892	32.288	-5.493	70.43	50.13	-66.28	-2.548	-30.576	-19.600	-0.48517	-0.62640	0.00339	0.61002	23.7	13111	100
2025-5-25 10:6:16.106	WT901BLE68(801231B9234C)	-0.160	0.883	0.048	8.728	35.828	29.297	72.07	49.77	-63.94	-2.548	-30.576	-19.600	-0.48517	-0.62640	0.00339	0.61002	23.7	13111	100
2025-5-25 10:6:16.106	WT901BLE68(801231B9234C)	-0.173	0.969	0.092	19.348	38.818	65.613	74.16	48.71	-61.26	-2.548	-30.576	-19.600	-0.48517	-0.62640	0.00339	0.61002	23.7	13111	100
2025-5-25 10:6:16.131	WT901BLE68(801231B9234C)	-0.144	1.088	0.080	27.405	36.682	103.027	76.45	46.89	-58.46	-2.548	-30.576	-19.600	-0.48517	-0.62640	0.00339	0.61002	23.7	13111	100
2025-5-25 10:6:16.131	WT901BLE68(801231B9234C)	-0.138	1.188	0.037	40.161	42.419	144.165	78.89	44.23	-55.66	-2.548	-30.576	-19.600	-0.48517	-0.62640	0.00339	0.61002	23.7	13111	100
2025-5-25 10:6:16.174	WT901BLE68(801231B9234C)	-0.214	1.090	0.074	57.373	57.678	178.894	81.67	40.81	-52.66	-2.548	-30.576	-19.600	-0.48517	-0.62640	0.00339	0.61002	23.7	13111	100
2025-5-25 10:6:16.174	WT901BLE68(801231B9234C)	-0.301	1.033	0.152	75.012	53.894	205.078	84.56	36.76	-49.85	-2.548	-30.576	-19.600	-0.48517	-0.62640	0.00339	0.61002	23.7	13111	100
2025-5-25 10:6:16.244	WT901BLE68(801231B9234C)	-0.374	1.104	0.259	84.534	23.743	222.046	87.02	32.22	-47.96	-2.548	-30.576	-19.600	-0.48517	-0.62640	0.00339	0.61002	23.7	13111	100
2025-5-25 10:6:16.244	WT901BLE68(801231B9234C)	-0.394	1.204	0.383	84.229	-30.640	224.426	88.74	27.50	-47.47	-2.548	-30.576	-19.600	-0.48517	-0.62640	0.00339	0.61002	23.7	13111	100
2025-5-25 10:6:16.266	WT901BLE68(801231B9234C)	-0.339	1.288	0.438	75.745	-89.905	211.609	89.65	22.99	-48.52	0.490	-30.576	-21.560	-0.48517	-0.62640	0.00339	0.61002	23.7	13111	100
2025-5-25 10:6:16.266	WT901BLE68(801231B9234C)	-0.235	1.339	0.365	70.862	-134.094	194.702	90.05	18.88	-50.81	0.490	-30.576	-21.560	-0.48517	-0.62640	0.00339	0.61002	23.7	13111	100
2025-5-25 10:6:16.309	WT901BLE68(801231B9234C)	-0.102	1.484	0.194	64.270	-140.930	191.284	90.46	15.10	-53.53	0.490	-30.576	-21.560	-0.48517	-0.62640	0.00339	0.61002	23.7	13111	100
2025-5-25 10:6:16.310	WT901BLE68(801231B9234C)	0.058	1.287	0.093	56.519	-117.615	175.232	90.87	11.45	-56.09	0.490	-30.576	-21.560	-0.48517	-0.62640	0.00339	0.61002	23.7	13111	100
2025-5-25 10:6:16.334	WT901BLE68(801231B9234C)	0.090	1.236	0.086	57.312	-60.669	148.010	91.59	8.34	-57.74	0.490	-30.576	-21.560	-0.48517	-0.62640	0.00339	0.61002	23.7	13111	100
2025-5-25 10:6:16.334	WT901BLE68(801231B9234C)	-0.018	1.177	0.181	48.706	9.338	120.422	92.45	5.75	-58.09	0.490	-30.576	-21.560	-0.48517	-0.62640	0.00339	0.61002	23.7	13111	100
2025-5-25 10:6:16.377	WT901BLE68(801231B9234C)	-0.151	1.086	0.238	38.879	66.284	92.834	93.21	3.65	-57.21	0.490	-30.576	-21.560	-0.48517	-0.62640	0.00339	0.61002	23.7	13111	100
2025-5-25 10:6:16.377	WT901BLE68(801231B9234C)	-0.188	0.962	0.213	32.410	101.746	72.632	93.80	1.98	-55.55	0.490	-30.576	-21.560	-0.48517	-0.62640	0.00339	0.61002	23.7	13111	100
2025-5-25 10:6:16.423	WT901BLE68(801231B9234C)	-0.239	0.909	0.157	29.968	123.962	60.852	94.26	0.56	-53.40	0.490	-30.576	-21.560	-0.48517	-0.62640	0.00339	0.61002	23.7	13111	100
2025-5-25 10:6:16.423	WT901BLE68(801231B9234C)	-0.319	0.856	0.108	25.757	135.925	50.598	94.61	-0.63	-50.98	0.490	-30.576	-21.560	-0.48517	-0.62640	0.00339	0.61002	23.7	13111	100
2025-5-25 10:6:16.467	WT901BLE68(801231B9234C)	-0.351	0.834	0.099	21.790	133.728	45.410	94.84	-1.68	-48.50	0.490	-30.576	-21.560	-0.48517	-0.62640	0.00339	0.61002	23.7	13111	100
2025-5-25 10:6:16.468	WT901BLE68(801231B9234C)	-0.360	0.863	0.108	18.921	118.958	45.105	94.99	-2.62	-46.28	0.490	-30.576	-21.560	-0.62595	-0.67313	0.30798	0.24512	23.7	13111	100
2025-5-25 10:6:16.512	WT901BLE68(801231B9234C)	-0.336	0.895	0.106	15.686	100.525	46.753	95.05	-3.52	-44.43	0.490	-30.576	-21.560	-0.62595	-0.67313	0.30798	0.24512	23.7	13111	100
2025-5-25 10:6:16.512	WT901BLE68(801231B9234C)	-0.339	0.896	0.096	13.489	87.891	53.345	95.06	-4.43	-42.91	0.490	-30.576	-21.560	-0.62595	-0.67313	0.30798	0.24512	23.7	13111	100
2025-5-25 10:6:16.536	WT901BLE68(801231B9234C)	-0.344	0.868	0.123	12.451	79.224	58.228	95.05	-5.44	-41.58	0.490	-30.576	-21.560	-0.62595	-0.67313	0.30798	0.24512	23.7	13111	100
2025-5-25 10:6:16.536	WT901BLE68(801231B9234C)	-0.375	0.823	0.155	15.381	71.838	63.477	95.07	-6.52	-40.44	0.490	-30.576	-21.560	-0.62595	-0.67313	0.30798	0.24512	23.7	13111	100
2025-5-25 10:6:16.579	WT901BLE68(801231B9234C)	-0.402	0.833	0.209	17.700	57.312	63.049	95.14	-7.58	-39.52	0.490	-30.576	-21.560	-0.62595	-0.67313	0.30798	0.24512	23.7	13111	100
2025-5-25 10:6:16.580	WT901BLE68(801231B9234C)	-0.433	0.872	0.248	18.127	39.063	58.899	95.26	-8.53	-38.96	0.490	-30.576	-21.560	-0.62595	-0.67313	0.30798	0.24512	23.7	13111	100
2025-5-25 10:6:16.626	WT901BLE68(801231B9234C)	-0.462	0.897	0.284	15.564	22.827	48.096	95.39	-9.26	-38.73	0.490	-30.576	-21.560	-0.62595	-0.67313	0.30798	0.24512	23.7	13111	100
2025-5-25 10:6:16.627	WT901BLE68(801231B9234C)	-0.474	0.998	0.275	12.939	2.075	30.701	95.52	-9.63	-38.86	0.490	-30.576	-21.560	-0.62595	-0.67313	0.30798	0.24512	23.7	13111	100
2025-5-25 10:6:16.670	WT901BLE68(801231B9234C)	-0.478	1.139	0.250	10.925	-18.433	8.362	95.65	-9.52	-39.36	0.490	-30.576	-21.560	-0.62595	-0.67313	0.30798	0.24512	23.7	13111	100
2025-5-25 10:6:16.670	WT901BLE68(801231B9234C)	-0.385	1.307	0.241	5.249	-39.307	-20.752	95.77	-8.88	-40.22	-19.502	-26.166	-19.502	-0.62595	-0.67313	0.30798	0.24512	23.7	13111	100
2025-5-25 10:6:16.723	WT901BLE68(801231B9234C)	-0.302	1.419	0.213	-0.549	-57.678	-50.659	95.80	-7.58	-41.39	-19.502	-26.166	-19.502	-0.62595	-0.67313	0.30798	0.24512	23.7	13111	100
2025-5-25 10:6:16.723	WT901BLE68(801231B9234C)	-0.212	1.519	0.204	-9.705	-59.265	-79.895	95.66	-5.74	-42.64	-19.502	-26.166	-19.502	-0.62595	-0.67313	0.30798	0.24512	23.7	13111	100
2025-5-25 10:6:16.739	WT901BLE68(801231B9234C)	-0.177	1.464	0.177	-20.996	-46.814	-103.210	95.25	-3.43	-43.71	-19.502	-26.166	-19.502	-0.62595	-0.67313	0.30798	0.24512	23.7	13111	100
2025-5-25 10:6:16.739	WT901BLE68(801231B9234C)	-0.189	1.362	0.165	-29.480	-22.705	-123.169	94.59	-0.82	-44.32	-19.502	-26.166	-19.502	-0.62595	-0.67313	0.30798	0.24512	23.7	13111	100
2025-5-25 10:6:16.781	WT901BLE68(801231B9234C)	-0.217	1.285	0.152	-33.203	-5.371	-137.878	93.82	2.03	-44.53	-19.502	-26.166	-19.502	-0.62595	-0.67313	0.30798	0.24512	23.7	13111	100
2025-5-25 10:6:16.782	WT901BLE68(801231B9234C)	-0.243	1.229	0.126	-33.508	0.244	-148.743	93.03	5.05	-44.57	-19.502	-26.166	-19.502	-0.62595	-0.67313	0.30798	0.24512	23.7	13111	100
2025-5-25 10:6:16.829	WT901BLE68(801231B9234C)	-0.290	1.212	0.110	-30.396	-4.944	-154.358	92.29	8.20	-44.64	-19.502	-26.166	-19.502	-0.62595	-0.67313	0.30798	0.24512	23.7	13111	100
2025-5-25 10:6:16.829	WT901BLE68(801231B9234C)	-0.322	1.218	0.107	-26.794	-22.522	-153.137	91.59	11.34	-45.03	-19.502	-26.166	-19.502	-0.62595	-0.67313	0.30798	0.24512	23.7	13111	100
2025-5-25 10:6:16.872	WT901BLE68(801231B9234C)	-0.326	1.230	0.104	-27.161	-57.312	-146.240	90.76	14.36	-46.04	-19.502	-26.166	-19.502	-0.62595	-0.67313	0.30798	0.24512	23.7	13111	100
2025-5-25 10:6:16.873	WT901BLE68(801231B9234C)	-0.315	1.224	0.094	-25.024	-91.370	-140.625	89.73	17.24	-47.81	-19.502	-26.166	-19.502	-0.59647	-0.68250	0.19061	0.37683	23.7	13111	100
2025-5-25 10:6:16.923	WT901BLE68(801231B9234C)	-0.247	1.214	0.069	-28.381	-124.268	-137.207	88.39	19.93	-50.32	-19.502	-26.166	-19.502	-0.59647	-0.68250	0.19061	0.37683	23.7	13111	100
2025-5-25 10:6:16.923	WT901BLE68(801231B9234C)	-0.166	1.177	0.023	-32.593	-148.743	-131.470	86.62	22.42	-53.53	-19.502	-26.166	-19.502	-0.59647	-0.68250	0.19061	0.37683	23.7	13111	100
2025-5-25 10:6:16.942	WT901BLE68(801231B9234C)	-0.123	1.131	-0.001	-36.011	-154.541	-128.540	84.53	24.67	-57.07	-19.502	-26.166	-19.502	-0.59647	-0.68250	0.19061	0.37683	23.7	13111	100
2025-5-25 10:6:16.942	WT901BLE68(801231B9234C)	-0.092	1.082	0.000	-39.307	-147.278	-127.014	82.28	26.72	-60.62	-19.502	-26.166	-19.502	-0.59647	-0.68250	0.19061	0.37683	23.7	13111	100
2025-5-25 10:6:16.985	WT901BLE68(801231B9234C)	-0.057	1.021	0.013	-44.128	-133.118	-128.479	79.92	28.66	-63.98	-19.502	-26.166	-19.502	-0.59647	-0.68250	0.19061	0.37683	23.7	13111	100
2025-5-25 10:6:16.985	WT901BLE68(801231B9234C)	-0.037	0.966	0.017	-48.828	-109.924	-129.272	77.55	30.55	-66.98	-19.502	-26.166	-19.502	-0.59647	-0.68250	0.19061	0.37683	23.7	13111	100
2025-5-25 10:6:17.29	WT901BLE68(801231B9234C)	-0.032	0.907	0.014	-52.551	-76.599	-128.174	75.33	32.42	-69.36	-19.502	-26.166	-19.502	-0.59647	-0.68250	0.19061	0.37683	23.7	13111	100
2025-5-25 10:6:17.29	WT901BLE68(801231B9234C)	-0.058	0.846	0.022	-53.894	-43.152	-125.854	73.41	34.33	-70.99	-19.502	-26.166	-19.502	-0.59647	-0.68250	0.19061	0.37683	23.7	13111	100
2025-5-25 10:6:17.97	WT901BLE68(801231B9234C)	-0.098	0.810	0.022	-54.260	-17.456	-122.925	71.78	36.29	-71.98	-19.502	-26.166	-19.502	-0.59647	-0.68250	0.19061	0.37683	23.7	13111	100
2025-5-25 10:6:17.97	WT901BLE68(801231B9234C)	-0.119	0.795	0.013	-53.833	-1.221	-117.859	70.41	38.25	-72.48	-19.502	-26.166	-19.502	-0.59647	-0.68250	0.19061	0.37683	23.7	13111	100
2025-5-25 10:6:17.98	WT901BLE68(801231B9234C)	-0.120	0.778	0.003	-53.040	8.179	-109.985	69.22	40.14	-72.67	-3.920	-33.418	-17.150	-0.59647	-0.68250	0.19061	0.37683	23.7	13111	100
2025-5-25 10:6:17.98	WT901BLE68(801231B9234C)	-0.113	0.764	-0.005	-50.659	14.832	-99.487	68.22	41.90	-72.59	-3.920	-33.418	-17.150	-0.59647	-0.68250	0.19061	0.37683	23.7	13111	100
2025-5-25 10:6:17.142	WT901BLE68(801231B9234C)	-0.122	0.785	-0.017	-46.936	21.545	-85.815	67.47	43.46	-72.21	-3.920	-33.418	-17.150	-0.59647	-0.68250	0.19061	0.37683	23.7	13111	100
2025-5-25 10:6:17.142	WT901BLE68(801231B9234C)	-0.100	0.838	-0.032	-43.030	28.564	-69.336	67.05	44.80	-71.47	-3.920	-33.418	-17.150	-0.59647	-0.68250	0.19061	0.37683	23.7	13111	100
2025-5-25 10:6:17.186	WT901BLE68(801231B9234C)	-0.107	0.885	-0.034	-36.072	39.734	-46.143	67.09	45.83	-70.20	-3.920	-33.418	-17.150	-0.59647	-0.68250	0.19061	0.37683	23.7	13111	100
2025-5-25 10:6:17.187	WT901BLE68(801231B9234C)	-0.117	0.924	-0.044	-27.649	50.842	-21.790	67.72	46.49	-68.33	-3.920	-33.418	-17.150	-0.59647	-0.68250	0.19061	0.37683	23.7	13111	100
2025-5-25 10:6:17.257	WT901BLE68(801231B9234C)	-0.133	0.923	-0.029	-15.930	62.866	9.460	69.05	46.70	-65.77	-3.920	-33.418	-17.150	-0.59647	-0.68250	0.19061	0.37683	23.7	13111	100
2025-5-25 10:6:17.257	WT901BLE68(801231B9234C)	-0.170	0.967	-0.031	-1.282	72.510	45.959	71.07	46.29	-62.62	-3.920	-33.418	-17.150	-0.59647	-0.68250	0.19061	0.37683	23.7	13111	100
2025-5-25 10:6:17.278	WT901BLE68(801231B9234C)	-0.209	1.019	-0.024	13.794	81.787	84.595	73.70	45.14	-58.95	-3.920	-33.418	-17.150	-0.59647	-0.68250	0.19061	0.37683	23.7	13111	100
2025-5-25 10:6:17.279	WT901BLE68(801231B9234C)	-0.228	1.068	0.004	29.907	83.496	126.038	76.73	43.11	-55.07	-3.920	-33.418	-17.150	-0.54065	-0.64688	0.01761	0.53741	23.7	13111	100
2025-5-25 10:6:17.301	WT901BLE68(801231B9234C)	-0.256	1.019	0.042	46.814	78.430	162.720	79.78	40.21	-51.45	-3.920	-33.418	-17.150	-0.54065	-0.64688	0.01761	0.53741	23.7	13111	100
2025-5-25 10:6:17.301	WT901BLE68(801231B9234C)	-0.313	0.958	0.132	63.904	68.970	186.890	82.74	36.61	-48.30	-3.920	-33.418	-17.150	-0.54065	-0.64688	0.01761	0.53741	23.7	13111	100
2025-5-25 10:6:17.367	WT901BLE68(801231B9234C)	-0.356	1.061	0.223	73.181	33.752	201.599	85.20	32.56	-46.16	-3.920	-33.418	-17.150	-0.54065	-0.64688	0.01761	0.53741	23.7	13111	100
2025-5-25 10:6:17.367	WT901BLE68(801231B9234C)	-0.363	1.211	0.312	71.777	-15.503	203.491	86.90	28.28	-45.43	-3.920	-33.418	-17.150	-0.54065	-0.64688	0.01761	0.53741	23.7	13111	100
2025-5-25 10:6:17.391	WT901BLE68(801231B9234C)	-0.283	1.302	0.332	65.674	-68.359	190.674	87.82	24.18	-46.17	-3.920	-33.418	-17.150	-0.54065	-0.64688	0.01761	0.53741	23.7	13111	100
2025-5-25 10:6:17.391	WT901BLE68(801231B9234C)	-0.186	1.319	0.239	72.388	-93.811	172.791	88.40	20.44	-47.94	-3.920	-33.418	-17.150	-0.54065	-0.64688	0.01761	0.53741	23.7	13111	100
2025-5-25 10:6:17.459	WT901BLE68(801231B9234C)	-0.129	1.372	0.142	68.359	-96.741	153.564	89.06	17.17	-49.94	-3.920	-33.418	-17.150	-0.54065	-0.64688	0.01761	0.53741	23.7	13111	100
2025-5-25 10:6:17.459	WT901BLE68(801231B9234C)	-0.061	1.386	0.104	62.012	-80.750	147.034	89.79	14.12	-51.82	-3.920	-33.418	-17.150	-0.54065	-0.64688	0.01761	0.53741	23.7	13111	100
2025-5-25 10:6:17.481	WT901BLE68(801231B9234C)	-0.059	1.221	0.171	59.448	-51.880	123.291	90.60	11.46	-53.25	-3.920	-33.418	-17.150	-0.54065	-0.64688	0.01761	0.53741	23.7	13111	100
2025-5-25 10:6:17.481	WT901BLE68(801231B9234C)	-0.115	1.101	0.238	53.162	-19.775	97.351	91.49	9.33	-54.11	-3.920	-33.418	-17.150	-0.54065	-0.64688	0.01761	0.53741	23.7	13111	100
2025-5-25 10:6:17.502	WT901BLE68(801231B9234C)	-0.182	0.975	0.254	47.424	5.066	75.195	92.33	7.70	-54.46	-15.484	-37.534	-11.270	-0.54065	-0.64688	0.01761	0.53741	23.7	13111	100
2025-5-25 10:6:17.502	WT901BLE68(801231B9234C)	-0.206	0.911	0.220	43.518	22.278	60.730	93.11	6.42	-54.48	-15.484	-37.534	-11.270	-0.54065	-0.64688	0.01761	0.53741	23.7	13111	100
2025-5-25 10:6:17.548	WT901BLE68(801231B9234C)	-0.218	0.869	0.184	39.490	35.461	52.551	93.83	5.35	-54.24	-15.484	-37.534	-11.270	-0.54065	-0.64688	0.01761	0.53741	23.7	13111	100
2025-5-25 10:6:17.548	WT901BLE68(801231B9234C)	-0.231	0.817	0.171	36.316	42.114	53.894	94.47	4.35	-53.88	-15.484	-37.534	-11.270	-0.54065	-0.64688	0.01761	0.53741	23.7	13111	100
2025-5-25 10:6:17.592	WT901BLE68(801231B9234C)	-0.245	0.828	0.162	32.654	44.922	52.612	95.03	3.37	-53.46	-15.484	-37.534	-11.270	-0.54065	-0.64688	0.01761	0.53741	23.7	13111	100
2025-5-25 10:6:17.592	WT901BLE68(801231B9234C)	-0.234	0.820	0.180	29.358	45.532	54.749	95.52	2.36	-53.04	-15.484	-37.534	-11.270	-0.54065	-0.64688	0.01761	0.53741	23.7	13111	100
2025-5-25 10:6:17.639	WT901BLE68(801231B9234C)	-0.237	0.837	0.184	26.367	50.964	59.265	95.93	1.30	-52.60	-15.484	-37.534	-11.270	-0.54065	-0.64688	0.01761	0.53741	23.7	13111	100
2025-5-25 10:6:17.639	WT901BLE68(801231B9234C)	-0.244	0.872	0.180	23.682	59.265	65.979	96.27	0.13	-52.03	-15.484	-37.534	-11.270	-0.54065	-0.64688	0.01761	0.53741	23.7	13111	100
2025-5-25 10:6:17.682	WT901BLE68(801231B9234C)	-0.278	0.884	0.190	20.935	69.519	74.158	96.54	-1.22	-51.31	-15.484	-37.534	-11.270	-0.54065	-0.64688	0.01761	0.53741	23.7	13111	100
2025-5-25 10:6:17.682	WT901BLE68(801231B9234C)	-0.336	0.904	0.201	21.362	74.524	81.726	96.76	-2.72	-50.47	-15.484	-37.534	-11.270	-0.60776	-0.67047	0.33792	0.25848	23.7	13111	100
2025-5-25 10:6:17.706	WT901BLE68(801231B9234C)	-0.408	0.989	0.233	20.996	68.237	87.402	96.95	-4.32	-49.70	-15.484	-37.534	-11.270	-0.60776	-0.67047	0.33792	0.25848	23.7	13111	100
2025-5-25 10:6:17.706	WT901BLE68(801231B9234C)	-0.438	1.022	0.272	18.311	52.124	87.830	97.11	-5.91	-49.19	-15.484	-37.534	-11.270	-0.60776	-0.67047	0.33792	0.25848	23.7	13111	100
2025-5-25 10:6:17.750	WT901BLE68(801231B9234C)	-0.440	1.055	0.291	15.259	28.870	80.444	97.25	-7.32	-49.09	-15.484	-37.534	-11.270	-0.60776	-0.67047	0.33792	0.25848	23.7	13111	100
2025-5-25 10:6:17.750	WT901BLE68(801231B9234C)	-0.460	1.091	0.287	10.864	11.169	63.049	97.35	-8.39	-49.37	-15.484	-37.534	-11.270	-0.60776	-0.67047	0.33792	0.25848	23.7	13111	100
2025-5-25 10:6:17.794	WT901BLE68(801231B9234C)	-0.463	1.137	0.293	6.592	-3.235	35.034	97.41	-8.93	-49.87	-15.484	-37.534	-11.270	-0.60776	-0.67047	0.33792	0.25848	23.7	13111	100
2025-5-25 10:6:17.794	WT901BLE68(801231B9234C)	-0.374	1.264	0.273	0.488	-25.391	-0.610	97.40	-8.75	-50.66	-15.484	-37.534	-11.270	-0.60776	-0.67047	0.33792	0.25848	23.7	13111	100
2025-5-25 10:6:17.864	WT901BLE68(801231B9234C)	-0.261	1.350	0.240	-5.310	-41.809	-33.691	97.33	-7.83	-51.74	-15.484	-37.534	-11.270	-0.60776	-0.67047	0.33792	0.25848	23.7	13111	100
2025-5-25 10:6:17.864	WT901BLE68(801231B9234C)	-0.211	1.366	0.208	-12.817	-47.302	-65.063	97.10	-6.27	-52.92	-15.484	-37.534	-11.270	-0.60776	-0.67047	0.33792	0.25848	23.7	13111	100
2025-5-25 10:6:17.865	WT901BLE68(801231B9234C)	-0.249	1.344	0.186	-22.522	-36.072	-87.280	96.64	-4.27	-53.93	-15.484	-37.534	-11.270	-0.60776	-0.67047	0.33792	0.25848	23.7	13111	100
2025-5-25 10:6:17.865	WT901BLE68(801231B9234C)	-0.248	1.264	0.171	-31.189	-24.292	-107.605	95.98	-1.95	-54.63	-26.950	-34.594	-5.880	-0.60776	-0.67047	0.33792	0.25848	23.7	13111	100
2025-5-25 10:6:17.907	WT901BLE68(801231B9234C)	-0.229	1.193	0.163	-35.889	-23.010	-120.667	95.16	0.64	-55.24	-26.950	-34.594	-5.880	-0.60776	-0.67047	0.33792	0.25848	23.7	13111	100
2025-5-25 10:6:17.907	WT901BLE68(801231B9234C)	-0.257	1.154	0.158	-37.354	-24.048	-132.141	94.30	3.42	-55.85	-26.950	-34.594	-5.880	-0.60776	-0.67047	0.33792	0.25848	23.7	13111	100
2025-5-25 10:6:17.954	WT901BLE68(801231B9234C)	-0.290	1.162	0.154	-38.757	-32.776	-138.000	93.38	6.33	-56.61	-26.950	-34.594	-5.880	-0.60776	-0.67047	0.33792	0.25848	23.7	13111	100
2025-5-25 10:6:17.955	WT901BLE68(801231B9234C)	-0.312	1.156	0.156	-40.161	-53.162	-138.916	92.37	9.27	-57.72	-26.950	-34.594	-5.880	-0.60776	-0.67047	0.33792	0.25848	23.7	13111	100
2025-5-25 10:6:18.23	WT901BLE68(801231B9234C)	-0.317	1.202	0.138	-44.067	-82.703	-135.193	91.17	12.13	-59.41	-26.950	-34.594	-5.880	-0.60776	-0.67047	0.33792	0.25848	23.7	13111	100
2025-5-25 10:6:18.23	WT901BLE68(801231B9234C)	-0.273	1.268	0.086	-51.758	-112.427	-127.014	89.65	14.79	-61.78	-26.950	-34.594	-5.880	-0.60776	-0.67047	0.33792	0.25848	23.7	13111	100
2025-5-25 10:6:18.43	WT901BLE68(801231B9234C)	-0.167	1.250	0.063	-57.617	-131.287	-118.530	87.79	17.14	-64.70	-26.950	-34.594	-5.880	-0.60776	-0.67047	0.33792	0.25848	23.7	13111	100
2025-5-25 10:6:18.44	WT901BLE68(801231B9234C)	-0.126	1.193	0.038	-61.340	-135.620	-110.413	85.64	19.22	-67.88	-26.950	-34.594	-5.880	-0.60776	-0.67047	0.33792	0.25848	23.7	13111	100
2025-5-25 10:6:18.110	WT901BLE68(801231B9234C)	-0.083	1.143	0.026	-66.650	-126.770	-109.436	83.34	21.08	-71.02	-26.950	-34.594	-5.880	-0.60776	-0.67047	0.33792	0.25848	23.7	13111	100
2025-5-25 10:6:18.110	WT901BLE68(801231B9234C)	-0.044	1.091	0.021	-71.655	-105.652	-109.985	80.97	22.84	-73.82	-26.950	-34.594	-5.880	-0.51669	-0.59717	0.26556	0.55298	23.7	13111	100
2025-5-25 10:6:18.111	WT901BLE68(801231B9234C)	-0.014	1.037	0.018	-76.111	-75.073	-113.892	78.66	24.59	-76.09	-26.950	-34.594	-5.880	-0.51669	-0.59717	0.26556	0.55298	23.7	13111	100
2025-5-25 10:6:18.111	WT901BLE68(801231B9234C)	-0.028	0.985	0.030	-78.857	-40.039	-117.493	76.51	26.46	-77.65	-26.950	-34.594	-5.880	-0.51669	-0.59717	0.26556	0.55298	23.7	13111	100
2025-5-25 10:6:18.153	WT901BLE68(801231B9234C)	-0.076	0.948	0.019	-79.468	-6.287	-122.559	74.62	28.49	-78.47	-26.950	-34.594	-5.880	-0.51669	-0.59717	0.26556	0.55298	23.7	13111	100
2025-5-25 10:6:18.154	WT901BLE68(801231B9234C)	-0.115	0.928	0.009	-78.125	20.081	-123.657	73.03	30.70	-78.63	-26.950	-34.594	-5.880	-0.51669	-0.59717	0.26556	0.55298	23.7	13111	100
2025-5-25 10:6:18.199	WT901BLE68(801231B9234C)	-0.126	0.900	0.000	-76.477	33.447	-122.925	71.67	32.99	-78.35	-26.950	-34.594	-5.880	-0.51669	-0.59717	0.26556	0.55298	23.7	13111	100
2025-5-25 10:6:18.200	WT901BLE68(801231B9234C)	-0.125	0.856	0.002	-73.486	38.025	-122.131	70.48	35.31	-77.85	-26.950	-34.594	-5.880	-0.51669	-0.59717	0.26556	0.55298	23.7	13111	100
2025-5-25 10:6:18.246	WT901BLE68(801231B9234C)	-0.124	0.824	-0.002	-70.129	39.978	-120.850	69.40	37.63	-77.21	-26.950	-34.594	-5.880	-0.51669	-0.59717	0.26556	0.55298	23.7	13111	100
2025-5-25 10:6:18.247	WT901BLE68(801231B9234C)	-0.118	0.835	-0.012	-65.979	41.077	-116.699	68.46	39.92	-76.46	-26.950	-34.594	-5.880	-0.51669	-0.59717	0.26556	0.55298	23.7	13111	100
2025-5-25 10:6:18.289	WT901BLE68(801231B9234C)	-0.104	0.846	-0.024	-60.913	43.701	-107.544	67.70	42.09	-75.53	-26.950	-34.594	-5.880	-0.51669	-0.59717	0.26556	0.55298	23.7	13111	100
2025-5-25 10:6:18.290	WT901BLE68(801231B9234C)	-0.096	0.862	-0.017	-54.871	48.645	-94.849	67.25	44.09	-74.31	5.684	-37.730	-17.542	-0.51669	-0.59717	0.26556	0.55298	23.7	13111	100
2025-5-25 10:6:18.324	WT901BLE68(801231B9234C)	-0.083	0.904	-0.024	-48.157	56.152	-76.965	67.21	45.87	-72.68	5.684	-37.730	-17.542	-0.51669	-0.59717	0.26556	0.55298	23.7	13111	100
2025-5-25 10:6:18.324	WT901BLE68(801231B9234C)	-0.102	0.889	-0.022	-39.063	66.833	-52.185	67.76	47.29	-70.44	5.684	-37.730	-17.542	-0.51669	-0.59717	0.26556	0.55298	23.7	13111	100
2025-5-25 10:6:18.357	WT901BLE68(801231B9234C)	-0.139	0.860	0.003	-26.978	77.209	-23.376	69.07	48.27	-67.50	5.684	-37.730	-17.542	-0.51669	-0.59717	0.26556	0.55298	23.7	13111	100
2025-5-25 10:6:18.358	WT901BLE68(801231B9234C)	-0.190	0.921	0.018	-13.794	82.153	16.296	71.08	48.58	-63.93	5.684	-37.730	-17.542	-0.51669	-0.59717	0.26556	0.55298	23.7	13111	100
2025-5-25 10:6:18.402	WT901BLE68(801231B9234C)	-0.168	0.961	0.051	-4.272	84.717	56.152	73.66	48.05	-59.88	5.684	-37.730	-17.542	-0.51669	-0.59717	0.26556	0.55298	23.7	13111	100
2025-5-25 10:6:18.402	WT901BLE68(801231B9234C)	-0.203	1.020	0.041	12.207	83.862	105.164	76.50	46.54	-55.72	5.684	-37.730	-17.542	-0.51669	-0.59717	0.26556	0.55298	23.7	13111	100
2025-5-25 10:6:18.448	WT901BLE68(801231B9234C)	-0.234	0.993	0.079	28.198	87.463	147.217	79.66	44.03	-51.44	5.684	-37.730	-17.542	-0.51669	-0.59717	0.26556	0.55298	23.7	13111	100
2025-5-25 10:6:18.449	WT901BLE68(801231B9234C)	-0.265	0.926	0.143	42.358	72.327	181.763	82.62	40.64	-47.65	5.684	-37.730	-17.542	-0.51669	-0.59717	0.26556	0.55298	23.7	13111	100
2025-5-25 10:6:18.491	WT901BLE68(801231B9234C)	-0.307	0.975	0.218	56.030	49.500	204.590	85.15	36.57	-44.74	5.684	-37.730	-17.542	-0.51669	-0.59717	0.26556	0.55298	23.7	13111	100
2025-5-25 10:6:18.492	WT901BLE68(801231B9234C)	-0.336	1.070	0.313	61.646	10.376	215.759	87.01	32.12	-43.02	5.684	-37.730	-17.542	-0.58319	-0.69321	0.07568	0.41656	23.7	13111	100
2025-5-25 10:6:18.523	WT901BLE68(801231B9234C)	-0.333	1.162	0.375	58.777	-36.438	211.975	88.14	27.61	-42.60	5.684	-37.730	-17.542	-0.58319	-0.69321	0.07568	0.41656	23.7	13111	100
2025-5-25 10:6:18.523	WT901BLE68(801231B9234C)	-0.230	1.246	0.358	52.673	-83.923	199.097	88.60	23.34	-43.49	5.684	-37.730	-17.542	-0.58319	-0.69321	0.07568	0.41656	23.7	13111	100
2025-5-25 10:6:18.560	WT901BLE68(801231B9234C)	-0.167	1.271	0.229	56.396	-100.464	182.556	88.92	19.39	-45.21	5.684	-37.730	-17.542	-0.58319	-0.69321	0.07568	0.41656	23.7	13111	100
2025-5-25 10:6:18.561	WT901BLE68(801231B9234C)	-0.013	1.397	0.115	49.561	-98.083	178.894	89.26	15.73	-47.19	5.684	-37.730	-17.542	-0.58319	-0.69321	0.07568	0.41656	23.7	13111	100
2025-5-25 10:6:18.605	WT901BLE68(801231B9234C)	0.081	1.207	0.117	44.067	-63.538	160.034	89.67	12.33	-48.78	5.684	-37.730	-17.542	-0.58319	-0.69321	0.07568	0.41656	23.7	13111	100
2025-5-25 10:6:18.605	WT901BLE68(801231B9234C)	0.055	1.113	0.154	40.405	-4.272	131.104	90.30	9.47	-49.40	5.684	-37.730	-17.542	-0.58319	-0.69321	0.07568	0.41656	23.7	13111	100
2025-5-25 10:6:18.629	WT901BLE68(801231B9234C)	-0.031	1.036	0.184	33.691	62.378	102.844	90.99	7.19	-48.78	5.684	-37.730	-17.542	-0.58319	-0.69321	0.07568	0.41656	23.7	13111	100
2025-5-25 10:6:18.629	WT901BLE68(801231B9234C)	-0.109	0.971	0.173	24.597	109.070	79.041	91.61	5.33	-47.15	5.684	-37.730	-17.542	-0.58319	-0.69321	0.07568	0.41656	23.7	13111	100
2025-5-25 10:6:18.674	WT901BLE68(801231B9234C)	-0.159	0.976	0.122	24.231	149.353	71.350	92.18	3.72	-44.77	5.684	-37.730	-17.542	-0.58319	-0.69321	0.07568	0.41656	23.7	13111	100
2025-5-25 10:6:18.674	WT901BLE68(801231B9234C)	-0.246	0.971	0.076	20.935	178.955	64.148	92.63	2.30	-41.79	-11.074	-40.474	-10.976	-0.58319	-0.69321	0.07568	0.41656	23.7	13111	100
2025-5-25 10:6:18.723	WT901BLE68(801231B9234C)	-0.375	0.975	0.045	15.015	188.721	63.171	92.91	0.96	-38.49	-11.074	-40.474	-10.976	-0.58319	-0.69321	0.07568	0.41656	23.7	13111	100
2025-5-25 10:6:18.724	WT901BLE68(801231B9234C)	-0.332	0.988	0.053	6.531	173.706	67.505	93.00	-0.44	-35.32	-11.074	-40.474	-10.976	-0.58319	-0.69321	0.07568	0.41656	23.7	13111	100
2025-5-25 10:6:18.762	WT901BLE68(801231B9234C)	-0.313	0.935	0.061	4.639	146.790	77.637	92.94	-1.92	-32.70	-11.074	-40.474	-10.976	-0.58319	-0.69321	0.07568	0.41656	23.7	13111	100
2025-5-25 10:6:18.762	WT901BLE68(801231B9234C)	-0.293	0.908	0.099	2.380	134.033	83.191	92.83	-3.54	-30.44	-11.074	-40.474	-10.976	-0.58319	-0.69321	0.07568	0.41656	23.7	13111	100
2025-5-25 10:6:18.806	WT901BLE68(801231B9234C)	-0.258	0.844	0.113	1.831	128.113	91.248	92.62	-5.20	-28.41	-11.074	-40.474	-10.976	-0.58319	-0.69321	0.07568	0.41656	23.7	13111	100
2025-5-25 10:6:18.807	WT901BLE68(801231B9234C)	-0.290	0.794	0.129	4.028	134.216	97.900	92.37	-6.97	-26.33	-11.074	-40.474	-10.976	-0.58319	-0.69321	0.07568	0.41656	23.7	13111	100
2025-5-25 10:6:18.831	WT901BLE68(801231B9234C)	-0.387	0.841	0.124	10.010	140.686	107.239	92.12	-8.87	-24.14	-11.074	-40.474	-10.976	-0.58319	-0.69321	0.07568	0.41656	23.7	13111	100
2025-5-25 10:6:18.831	WT901BLE68(801231B9234C)	-0.502	0.909	0.136	15.564	138.794	114.929	91.91	-10.91	-21.92	-11.074	-40.474	-10.976	-0.58319	-0.69321	0.07568	0.41656	23.7	13111	100
2025-5-25 10:6:18.876	WT901BLE68(801231B9234C)	-0.643	1.013	0.154	18.433	120.422	115.051	91.75	-12.96	-19.94	-11.074	-40.474	-10.976	-0.58319	-0.69321	0.07568	0.41656	23.7	13111	100
2025-5-25 10:6:18.876	WT901BLE68(801231B9234C)	-0.804	1.150	0.178	19.287	93.628	101.257	91.69	-14.78	-18.47	-11.074	-40.474	-10.976	-0.69370	-0.68979	0.20688	0.00766	23.7	13111	100
2025-5-25 10:6:18.942	WT901BLE68(801231B9234C)	-0.813	1.250	0.192	13.550	62.012	67.871	91.70	-16.01	-17.58	-11.074	-40.474	-10.976	-0.69370	-0.68979	0.20688	0.00766	23.7	13111	100
2025-5-25 10:6:18.942	WT901BLE68(801231B9234C)	-0.526	1.271	0.180	12.634	18.921	20.264	91.86	-16.34	-17.45	-11.074	-40.474	-10.976	-0.69370	-0.68979	0.20688	0.00766	23.7	13111	100
2025-5-25 10:6:18.967	WT901BLE68(801231B9234C)	-0.200	1.244	0.167	12.207	-39.368	-26.367	92.32	-15.65	-18.39	-11.074	-40.474	-10.976	-0.69370	-0.68979	0.20688	0.00766	23.7	13111	100
2025-5-25 10:6:18.967	WT901BLE68(801231B9234C)	-0.225	1.300	0.153	16.663	-67.566	-71.228	93.07	-14.04	-20.19	-11.074	-40.474	-10.976	-0.69370	-0.68979	0.20688	0.00766	23.7	13111	100
2025-5-25 10:6:19.9	WT901BLE68(801231B9234C)	-0.230	1.342	0.166	9.094	-63.782	-123.535	93.65	-11.39	-21.97	-11.074	-40.474	-10.976	-0.69370	-0.68979	0.20688	0.00766	23.7	13111	100
2025-5-25 10:6:19.10	WT901BLE68(801231B9234C)	-0.273	1.297	0.167	4.517	-32.043	-136.841	93.94	-8.34	-23.21	-11.074	-40.474	-10.976	-0.69370	-0.68979	0.20688	0.00766	23.7	13111	100
2025-5-25 10:6:19.34	WT901BLE68(801231B9234C)	-0.248	1.196	0.188	-4.761	-5.005	-145.447	93.88	-5.13	-23.79	-11.074	-40.474	-10.976	-0.69370	-0.68979	0.20688	0.00766	23.7	13111	100
2025-5-25 10:6:19.34	WT901BLE68(801231B9234C)	-0.323	1.168	0.185	-7.202	23.865	-143.860	93.66	-1.99	-23.78	-11.074	-40.474	-10.976	-0.69370	-0.68979	0.20688	0.00766	23.7	13111	100
2025-5-25 10:6:19.79	WT901BLE68(801231B9234C)	-0.360	1.212	0.184	-8.484	38.574	-148.071	93.43	1.11	-23.36	-11.074	-40.474	-10.976	-0.69370	-0.68979	0.20688	0.00766	23.7	13111	100
2025-5-25 10:6:19.79	WT901BLE68(801231B9234C)	-0.376	1.221	0.168	-7.019	17.639	-146.362	93.22	4.21	-23.08	-7.742	-39.592	-14.798	-0.69370	-0.68979	0.20688	0.00766	23.7	13111	100
2025-5-25 10:6:19.123	WT901BLE68(801231B9234C)	-0.326	1.292	0.178	-7.446	-24.841	-144.226	92.98	7.28	-23.51	-7.742	-39.592	-14.798	-0.69370	-0.68979	0.20688	0.00766	23.7	13111	100
2025-5-25 10:6:19.123	WT901BLE68(801231B9234C)	-0.230	1.322	0.186	-10.620	-68.726	-143.372	92.57	10.32	-24.83	-7.742	-39.592	-14.798	-0.69370	-0.68979	0.20688	0.00766	23.7	13111	100
2025-5-25 10:6:19.190	WT901BLE68(801231B9234C)	-0.177	1.285	0.169	-16.174	-96.436	-148.804	91.85	13.40	-26.83	-7.742	-39.592	-14.798	-0.69370	-0.68979	0.20688	0.00766	23.7	13111	100
2025-5-25 10:6:19.190	WT901BLE68(801231B9234C)	-0.160	1.263	0.140	-21.606	-109.680	-154.663	90.83	16.54	-29.18	-7.742	-39.592	-14.798	-0.69370	-0.68979	0.20688	0.00766	23.7	13111	100
2025-5-25 10:6:19.223	WT901BLE68(801231B9234C)	-0.134	1.213	0.130	-24.048	-113.586	-164.124	89.58	19.71	-31.66	-7.742	-39.592	-14.798	-0.69370	-0.68979	0.20688	0.00766	23.7	13111	100
2025-5-25 10:6:19.223	WT901BLE68(801231B9234C)	-0.077	1.180	0.122	-26.550	-117.432	-174.011	88.08	22.99	-34.23	-7.742	-39.592	-14.798	-0.69370	-0.68979	0.20688	0.00766	23.7	13111	100
2025-5-25 10:6:19.237	WT901BLE68(801231B9234C)	-0.047	1.151	0.157	-32.593	-115.417	-184.204	86.33	26.33	-36.82	-7.742	-39.592	-14.798	-0.69370	-0.68979	0.20688	0.00766	23.7	13111	100
2025-5-25 10:6:19.237	WT901BLE68(801231B9234C)	-0.002	1.108	0.130	-40.466	-104.614	-192.383	84.32	29.75	-39.29	-7.742	-39.592	-14.798	-0.69370	-0.68979	0.20688	0.00766	23.7	13111	100
2025-5-25 10:6:19.281	WT901BLE68(801231B9234C)	0.009	1.054	0.112	-47.424	-81.665	-192.993	82.19	33.13	-41.38	-7.742	-39.592	-14.798	-0.69370	-0.68979	0.20688	0.00766	23.7	13111	100
2025-5-25 10:6:19.281	WT901BLE68(801231B9234C)	-0.016	0.991	0.094	-51.575	-52.612	-188.293	80.15	36.43	-42.88	-7.742	-39.592	-14.798	-0.59772	-0.65350	-0.01038	0.46417	23.7	13111	100
2025-5-25 10:6:19.326	WT901BLE68(801231B9234C)	-0.065	0.915	0.094	-52.673	-27.832	-178.345	78.35	39.58	-43.75	-7.742	-39.592	-14.798	-0.59772	-0.65350	-0.01038	0.46417	23.7	13111	100
2025-5-25 10:6:19.326	WT901BLE68(801231B9234C)	-0.037	0.842	0.090	-55.603	-17.700	-169.312	76.72	42.56	-44.23	-7.742	-39.592	-14.798	-0.59772	-0.65350	-0.01038	0.46417	23.7	13111	100
2025-5-25 10:6:19.370	WT901BLE68(801231B9234C)	-0.058	0.746	0.080	-51.331	-5.005	-150.024	75.25	45.25	-44.45	-7.742	-39.592	-14.798	-0.59772	-0.65350	-0.01038	0.46417	23.7	13111	100
2025-5-25 10:6:19.370	WT901BLE68(801231B9234C)	-0.059	0.655	0.077	-47.485	5.432	-134.827	74.09	47.66	-44.28	-7.742	-39.592	-14.798	-0.59772	-0.65350	-0.01038	0.46417	23.7	13111	100
2025-5-25 10:6:19.422	WT901BLE68(801231B9234C)	-0.037	0.593	0.075	-42.053	19.592	-112.122	73.38	49.74	-43.64	-7.742	-39.592	-14.798	-0.59772	-0.65350	-0.01038	0.46417	23.7	13111	100
2025-5-25 10:6:19.423	WT901BLE68(801231B9234C)	-0.021	0.575	0.044	-35.095	55.176	-87.463	73.57	51.49	-41.98	-7.742	-39.592	-14.798	-0.59772	-0.65350	-0.01038	0.46417	23.7	13111	100
2025-5-25 10:6:19.441	WT901BLE68(801231B9234C)	0.000	0.577	-0.017	-28.992	103.882	-59.814	75.25	52.93	-38.62	-7.742	-39.592	-14.798	-0.59772	-0.65350	-0.01038	0.46417	23.7	13111	100
2025-5-25 10:6:19.441	WT901BLE68(801231B9234C)	-0.146	0.519	-0.055	-17.456	165.771	-24.109	78.95	53.90	-33.00	-7.742	-39.592	-14.798	-0.59772	-0.65350	-0.01038	0.46417	23.7	13111	100
2025-5-25 10:6:19.483	WT901BLE68(801231B9234C)	-0.322	0.448	-0.055	-9.399	214.661	10.986	84.69	54.01	-25.16	-7.742	-39.592	-14.798	-0.59772	-0.65350	-0.01038	0.46417	23.7	13111	100
2025-5-25 10:6:19.484	WT901BLE68(801231B9234C)	-0.593	0.557	-0.080	-5.737	227.722	58.472	91.09	52.88	-16.55	24.892	-26.068	-19.796	-0.59772	-0.65350	-0.01038	0.46417	23.7	13111	100
2025-5-25 10:6:19.528	WT901BLE68(801231B9234C)	-0.743	0.902	-0.100	-14.526	186.768	117.188	96.16	50.21	-9.34	24.892	-26.068	-19.796	-0.59772	-0.65350	-0.01038	0.46417	23.7	13111	100
2025-5-25 10:6:19.528	WT901BLE68(801231B9234C)	-0.606	1.203	-0.095	-32.593	118.103	179.626	98.44	46.37	-5.06	24.892	-26.068	-19.796	-0.59772	-0.65350	-0.01038	0.46417	23.7	13111	100
2025-5-25 10:6:19.572	WT901BLE68(801231B9234C)	-0.505	1.163	-0.039	-31.921	62.683	232.056	98.71	41.63	-3.16	24.892	-26.068	-19.796	-0.59772	-0.65350	-0.01038	0.46417	23.7	13111	100
2025-5-25 10:6:19.573	WT901BLE68(801231B9234C)	-0.504	1.008	0.057	-14.709	18.372	261.536	98.21	36.34	-2.71	24.892	-26.068	-19.796	-0.59772	-0.65350	-0.01038	0.46417	23.7	13111	100
2025-5-25 10:6:19.623	WT901BLE68(801231B9234C)	-0.573	1.015	0.237	-2.808	-41.809	275.269	97.34	30.90	-3.49	24.892	-26.068	-19.796	-0.59772	-0.65350	-0.01038	0.46417	23.7	13111	100
2025-5-25 10:6:19.623	WT901BLE68(801231B9234C)	-0.514	1.047	0.424	12.512	-112.793	257.080	96.16	25.76	-5.65	24.892	-26.068	-19.796	-0.59772	-0.65350	-0.01038	0.46417	23.7	13111	100
2025-5-25 10:6:19.642	WT901BLE68(801231B9234C)	-0.266	1.162	0.480	13.672	-193.237	220.764	94.71	21.40	-9.26	24.892	-26.068	-19.796	-0.59772	-0.65350	-0.01038	0.46417	23.7	13111	100
2025-5-25 10:6:19.642	WT901BLE68(801231B9234C)	-0.232	1.250	0.320	33.508	-201.477	189.209	93.46	17.73	-13.59	24.892	-26.068	-19.796	-0.59772	-0.65350	-0.01038	0.46417	23.7	13111	100
2025-5-25 10:6:19.684	WT901BLE68(801231B9234C)	-0.172	1.538	0.095	32.776	-172.791	151.062	92.86	14.79	-17.26	24.892	-26.068	-19.796	-0.59772	-0.65350	-0.01038	0.46417	23.7	13111	100
2025-5-25 10:6:19.684	WT901BLE68(801231B9234C)	0.032	1.462	-0.036	17.273	-133.911	174.316	92.47	11.63	-20.31	24.892	-26.068	-19.796	-0.66391	-0.71945	0.08569	0.18491	23.7	13111	100
2025-5-25 10:6:19.730	WT901BLE68(801231B9234C)	0.061	1.159	0.031	23.682	-70.435	143.921	92.40	8.63	-22.27	24.892	-26.068	-19.796	-0.66391	-0.71945	0.08569	0.18491	23.7	13111	100
2025-5-25 10:6:19.730	WT901BLE68(801231B9234C)	-0.034	1.131	0.105	18.982	-1.770	107.422	92.64	6.32	-22.87	24.892	-26.068	-19.796	-0.66391	-0.71945	0.08569	0.18491	23.7	13111	100
2025-5-25 10:6:19.774	WT901BLE68(801231B9234C)	-0.083	1.050	0.122	4.456	57.190	80.139	92.78	4.55	-22.24	24.892	-26.068	-19.796	-0.66391	-0.71945	0.08569	0.18491	23.7	13111	100
2025-5-25 10:6:19.775	WT901BLE68(801231B9234C)	-0.178	0.933	0.110	-1.587	103.394	70.068	92.70	2.99	-20.69	24.892	-26.068	-19.796	-0.66391	-0.71945	0.08569	0.18491	23.7	13111	100
2025-5-25 10:6:19.799	WT901BLE68(801231B9234C)	-0.253	0.873	0.118	-7.813	131.348	56.885	92.56	1.73	-18.48	24.892	-26.068	-19.796	-0.66391	-0.71945	0.08569	0.18491	23.7	13111	100
2025-5-25 10:6:19.799	WT901BLE68(801231B9234C)	-0.291	0.857	0.097	-8.972	151.917	46.570	92.35	0.69	-15.88	24.892	-26.068	-19.796	-0.66391	-0.71945	0.08569	0.18491	23.7	13111	100
2025-5-25 10:6:19.842	WT901BLE68(801231B9234C)	-0.387	0.819	0.072	-6.042	155.029	42.969	92.09	-0.13	-13.20	24.892	-26.068	-19.796	-0.66391	-0.71945	0.08569	0.18491	23.7	13111	100
2025-5-25 10:6:19.842	WT901BLE68(801231B9234C)	-0.359	0.786	0.063	-9.888	138.977	33.875	91.83	-0.82	-10.68	24.892	-26.068	-19.796	-0.66391	-0.71945	0.08569	0.18491	23.7	13111	100
2025-5-25 10:6:19.887	WT901BLE68(801231B9234C)	-0.334	0.736	0.044	-6.348	114.746	42.419	91.58	-1.47	-8.71	24.892	-26.068	-19.796	-0.66391	-0.71945	0.08569	0.18491	23.7	13111	100
2025-5-25 10:6:19.887	WT901BLE68(801231B9234C)	-0.323	0.694	0.048	-4.578	91.003	46.021	91.38	-2.19	-7.22	-2.352	-39.788	-15.974	-0.66391	-0.71945	0.08569	0.18491	23.7	13111	100
2025-5-25 10:6:19.934	WT901BLE68(801231B9234C)	-0.318	0.648	0.055	-1.953	67.932	54.016	91.25	-2.98	-6.22	-2.352	-39.788	-15.974	-0.66391	-0.71945	0.08569	0.18491	23.7	13111	100
2025-5-25 10:6:19.934	WT901BLE68(801231B9234C)	-0.337	0.612	0.062	2.136	45.959	64.331	91.21	-3.93	-5.70	-2.352	-39.788	-15.974	-0.66391	-0.71945	0.08569	0.18491	23.7	13111	100
2025-5-25 10:6:19.977	WT901BLE68(801231B9234C)	-0.340	0.625	0.079	5.554	26.917	75.745	91.29	-5.06	-5.59	-2.352	-39.788	-15.974	-0.66391	-0.71945	0.08569	0.18491	23.7	13111	100
2025-5-25 10:6:19.977	WT901BLE68(801231B9234C)	-0.343	0.661	0.091	8.545	10.986	88.013	91.47	-6.40	-5.87	-2.352	-39.788	-15.974	-0.66391	-0.71945	0.08569	0.18491	23.7	13111	100
2025-5-25 10:6:20.1	WT901BLE68(801231B9234C)	-0.387	0.696	0.138	10.132	2.197	95.581	91.72	-7.90	-6.41	-2.352	-39.788	-15.974	-0.66391	-0.71945	0.08569	0.18491	23.7	13111	100
2025-5-25 10:6:20.1	WT901BLE68(801231B9234C)	-0.398	0.774	0.146	8.850	-7.874	94.666	92.01	-9.39	-7.17	-2.352	-39.788	-15.974	-0.66391	-0.71945	0.08569	0.18491	23.7	13111	100
2025-5-25 10:6:20.45	WT901BLE68(801231B9234C)	-0.436	0.900	0.137	6.470	-8.301	96.008	92.30	-10.91	-8.05	-2.352	-39.788	-15.974	-0.66391	-0.71945	0.08569	0.18491	23.7	13111	100
2025-5-25 10:6:20.46	WT901BLE68(801231B9234C)	-0.517	0.970	0.117	7.141	4.028	85.327	92.54	-12.27	-8.81	-2.352	-39.788	-15.974	-0.66391	-0.71945	0.08569	0.18491	23.7	13111	100
2025-5-25 10:6:20.89	WT901BLE68(801231B9234C)	-0.692	1.222	0.121	10.010	17.273	65.979	92.77	-13.32	-9.25	-2.352	-39.788	-15.974	-0.66391	-0.71945	0.08569	0.18491	23.7	13111	100
2025-5-25 10:6:20.89	WT901BLE68(801231B9234C)	-0.685	1.848	0.154	3.113	14.404	39.673	92.92	-13.90	-9.59	-2.352	-39.788	-15.974	-0.66391	-0.71945	0.08569	0.18491	23.7	13111	100
2025-5-25 10:6:20.135	WT901BLE68(801231B9234C)	-0.394	2.052	0.091	0.732	7.385	2.380	93.00	-13.79	-10.01	-2.352	-39.788	-15.974	-0.66391	-0.71945	0.08569	0.18491	23.7	13111	100
2025-5-25 10:6:20.135	WT901BLE68(801231B9234C)	-0.129	1.754	0.057	1.221	-3.662	-38.940	93.10	-12.93	-10.54	-2.352	-39.788	-15.974	-0.68454	-0.71365	0.14655	-0.02286	23.7	13111	100
2025-5-25 10:6:20.179	WT901BLE68(801231B9234C)	-0.213	1.673	0.090	9.766	-11.475	-87.341	93.32	-11.17	-11.21	-2.352	-39.788	-15.974	-0.68454	-0.71365	0.14655	-0.02286	23.7	13111	100
2025-5-25 10:6:20.180	WT901BLE68(801231B9234C)	-0.414	1.460	0.149	16.602	-8.240	-132.813	93.65	-8.51	-11.74	-2.352	-39.788	-15.974	-0.68454	-0.71365	0.14655	-0.02286	23.7	13111	100
2025-5-25 10:6:20.203	WT901BLE68(801231B9234C)	-0.489	1.278	0.158	17.700	-40.710	-155.090	94.03	-5.21	-12.55	-2.352	-39.788	-15.974	-0.68454	-0.71365	0.14655	-0.02286	23.7	13111	100
2025-5-25 10:6:20.204	WT901BLE68(801231B9234C)	-0.503	1.290	0.143	11.169	-89.172	-160.767	94.38	-1.67	-14.18	-2.352	-39.788	-15.974	-0.68454	-0.71365	0.14655	-0.02286	23.7	13111	100
2025-5-25 10:6:20.247	WT901BLE68(801231B9234C)	-0.397	1.365	0.104	-0.061	-146.423	-153.564	94.44	1.90	-16.86	-2.352	-39.788	-15.974	-0.68454	-0.71365	0.14655	-0.02286	23.7	13111	100
2025-5-25 10:6:20.248	WT901BLE68(801231B9234C)	-0.244	1.335	0.083	-14.160	-199.463	-144.653	94.03	5.33	-20.64	-2.352	-39.788	-15.974	-0.68454	-0.71365	0.14655	-0.02286	23.7	13111	100
2025-5-25 10:6:20.322	WT901BLE68(801231B9234C)	-0.145	1.268	0.039	-26.672	-239.258	-140.198	93.03	8.62	-25.33	-2.352	-39.788	-15.974	-0.68454	-0.71365	0.14655	-0.02286	23.7	13111	100
2025-5-25 10:6:20.323	WT901BLE68(801231B9234C)	-0.099	1.234	0.016	-36.926	-251.892	-139.771	91.47	11.73	-30.50	-2.352	-39.788	-15.974	-0.68454	-0.71365	0.14655	-0.02286	23.7	13111	100
2025-5-25 10:6:20.339	WT901BLE68(801231B9234C)	-0.046	1.187	0.022	-46.265	-245.422	-142.822	89.46	14.67	-35.72	-3.430	-40.768	-14.896	-0.68454	-0.71365	0.14655	-0.02286	23.7	13111	100
2025-5-25 10:6:20.339	WT901BLE68(801231B9234C)	0.009	1.150	0.042	-56.396	-222.290	-148.682	87.09	17.46	-40.65	-3.430	-40.768	-14.896	-0.68454	-0.71365	0.14655	-0.02286	23.7	13111	100
2025-5-25 10:6:20.361	WT901BLE68(801231B9234C)	0.025	1.118	0.045	-66.223	-186.340	-154.175	84.47	20.14	-45.01	-3.430	-40.768	-14.896	-0.68454	-0.71365	0.14655	-0.02286	23.7	13111	100
2025-5-25 10:6:20.361	WT901BLE68(801231B9234C)	0.014	1.065	0.034	-74.768	-146.240	-158.936	81.75	22.77	-48.63	-3.430	-40.768	-14.896	-0.68454	-0.71365	0.14655	-0.02286	23.7	13111	100
2025-5-25 10:6:20.404	WT901BLE68(801231B9234C)	-0.016	1.024	0.010	-81.055	-104.919	-159.668	79.05	25.37	-51.45	-3.430	-40.768	-14.896	-0.68454	-0.71365	0.14655	-0.02286	23.7	13111	100
2025-5-25 10:6:20.404	WT901BLE68(801231B9234C)	-0.044	0.987	-0.015	-85.388	-64.453	-158.081	76.49	27.96	-53.48	-3.430	-40.768	-14.896	-0.68454	-0.71365	0.14655	-0.02286	23.7	13111	100
2025-5-25 10:6:20.450	WT901BLE68(801231B9234C)	-0.069	0.950	-0.026	-88.623	-26.917	-154.297	74.16	30.57	-54.72	-3.430	-40.768	-14.896	-0.68454	-0.71365	0.14655	-0.02286	23.7	13111	100
2025-5-25 10:6:20.450	WT901BLE68(801231B9234C)	-0.079	0.903	-0.044	-89.722	3.357	-148.071	72.10	33.20	-55.24	-3.430	-40.768	-14.896	-0.68454	-0.71365	0.14655	-0.02286	23.7	13111	100
2025-5-25 10:6:20.493	WT901BLE68(801231B9234C)	-0.089	0.873	-0.059	-89.111	26.978	-138.794	70.35	35.79	-55.17	-3.430	-40.768	-14.896	-0.68454	-0.71365	0.14655	-0.02286	23.7	13111	100
2025-5-25 10:6:20.494	WT901BLE68(801231B9234C)	-0.103	0.836	-0.071	-86.243	43.579	-126.831	68.93	38.29	-54.60	-3.430	-40.768	-14.896	-0.68454	-0.71365	0.14655	-0.02286	23.7	13111	100
2025-5-25 10:6:20.541	WT901BLE68(801231B9234C)	-0.124	0.808	-0.076	-81.116	53.284	-112.732	67.86	40.63	-53.62	-3.430	-40.768	-14.896	-0.60657	-0.59906	-0.01474	0.52237	23.7	13111	100
2025-5-25 10:6:20.541	WT901BLE68(801231B9234C)	-0.171	0.822	-0.054	-75.256	59.814	-97.046	67.15	42.75	-52.30	-3.430	-40.768	-14.896	-0.60657	-0.59906	-0.01474	0.52237	23.7	13111	100
2025-5-25 10:6:20.564	WT901BLE68(801231B9234C)	-0.188	0.852	-0.030	-70.923	68.665	-82.458	66.81	44.64	-50.60	-3.430	-40.768	-14.896	-0.60657	-0.59906	-0.01474	0.52237	23.7	13111	100
2025-5-25 10:6:20.564	WT901BLE68(801231B9234C)	-0.199	0.867	-0.005	-65.613	72.815	-61.340	66.88	46.24	-48.48	-3.430	-40.768	-14.896	-0.60657	-0.59906	-0.01474	0.52237	23.7	13111	100
2025-5-25 10:6:20.607	WT901BLE68(801231B9234C)	-0.176	0.854	-0.032	-57.617	72.205	-35.278	67.36	47.40	-46.02	-3.430	-40.768	-14.896	-0.60657	-0.59906	-0.01474	0.52237	23.7	13111	100
2025-5-25 10:6:20.607	WT901BLE68(801231B9234C)	-0.167	0.873	-0.062	-44.006	76.599	-0.916	68.38	47.97	-43.12	-3.430	-40.768	-14.896	-0.60657	-0.59906	-0.01474	0.52237	23.7	13111	100
2025-5-25 10:6:20.652	WT901BLE68(801231B9234C)	-0.205	0.929	-0.081	-23.071	90.027	40.527	70.30	47.83	-39.52	-3.430	-40.768	-14.896	-0.60657	-0.59906	-0.01474	0.52237	23.7	13111	100
2025-5-25 10:6:20.653	WT901BLE68(801231B9234C)	-0.291	0.989	-0.052	4.272	103.516	88.928	73.24	46.82	-35.15	-3.430	-40.768	-14.896	-0.60657	-0.59906	-0.01474	0.52237	23.7	13111	100
2025-5-25 10:6:20.697	WT901BLE68(801231B9234C)	-0.369	0.904	0.016	28.320	106.201	128.662	76.80	44.85	-30.52	-3.430	-40.768	-14.896	-0.60657	-0.59906	-0.01474	0.52237	23.7	13111	100
2025-5-25 10:6:20.697	WT901BLE68(801231B9234C)	-0.375	0.762	0.118	43.884	86.487	154.114	80.23	42.11	-26.41	-3.430	-40.768	-14.896	-0.60657	-0.59906	-0.01474	0.52237	23.7	13111	100
2025-5-25 10:6:20.742	WT901BLE68(801231B9234C)	-0.407	0.747	0.156	57.861	52.612	179.993	82.99	38.67	-23.45	18.228	-27.048	-24.304	-0.60657	-0.59906	-0.01474	0.52237	23.7	13111	100
2025-5-25 10:6:20.742	WT901BLE68(801231B9234C)	-0.408	0.864	0.207	71.594	9.705	197.998	85.15	34.71	-21.74	18.228	-27.048	-24.304	-0.60657	-0.59906	-0.01474	0.52237	23.7	13111	100
2025-5-25 10:6:20.786	WT901BLE68(801231B9234C)	-0.390	1.099	0.262	78.430	-48.218	208.740	86.58	30.41	-21.54	18.228	-27.048	-24.304	-0.60657	-0.59906	-0.01474	0.52237	23.7	13111	100
2025-5-25 10:6:20.787	WT901BLE68(801231B9234C)	-0.334	1.265	0.273	79.102	-103.210	203.125	87.38	26.10	-22.76	18.228	-27.048	-24.304	-0.60657	-0.59906	-0.01474	0.52237	23.7	13111	100
2025-5-25 10:6:20.811	WT901BLE68(801231B9234C)	-0.259	1.369	0.169	82.581	-143.311	188.171	87.86	22.06	-25.05	18.228	-27.048	-24.304	-0.60657	-0.59906	-0.01474	0.52237	23.7	13111	100
2025-5-25 10:6:20.811	WT901BLE68(801231B9234C)	-0.305	1.427	0.021	89.905	-152.405	169.006	88.62	18.41	-27.72	18.228	-27.048	-24.304	-0.60657	-0.59906	-0.01474	0.52237	23.7	13111	100
2025-5-25 10:6:20.854	WT901BLE68(801231B9234C)	-0.329	1.422	-0.065	90.637	-177.002	170.715	89.45	14.97	-30.88	18.228	-27.048	-24.304	-0.60657	-0.59906	-0.01474	0.52237	23.7	13111	100
2025-5-25 10:6:20.855	WT901BLE68(801231B9234C)	-0.207	1.262	0.048	85.938	-197.632	162.354	90.29	11.68	-34.60	18.228	-27.048	-24.304	-0.60657	-0.59906	-0.01474	0.52237	23.7	13111	100
2025-5-25 10:6:20.900	WT901BLE68(801231B9234C)	-0.079	1.075	0.174	87.280	-207.092	138.000	91.24	8.88	-38.70	18.228	-27.048	-24.304	-0.60657	-0.59906	-0.01474	0.52237	23.7	13111	100
2025-5-25 10:6:20.900	WT901BLE68(801231B9234C)	0.044	1.011	0.243	90.027	-186.340	113.770	92.43	6.60	-42.76	18.228	-27.048	-24.304	-0.60657	-0.59906	-0.01474	0.52237	23.7	13111	100
2025-5-25 10:6:20.944	WT901BLE68(801231B9234C)	0.061	0.991	0.252	96.802	-136.780	94.604	93.91	4.90	-46.12	18.228	-27.048	-24.304	-0.61353	-0.68488	0.26358	0.29141	23.7	13111	100
2025-5-25 10:6:20.945	WT901BLE68(801231B9234C)	-0.016	1.012	0.282	95.947	-69.763	75.867	95.55	3.51	-48.33	18.228	-27.048	-24.304	-0.61353	-0.68488	0.26358	0.29141	23.7	13111	100
2025-5-25 10:6:20.968	WT901BLE68(801231B9234C)	-0.086	1.026	0.317	93.201	-11.230	64.697	97.22	2.33	-49.38	18.228	-27.048	-24.304	-0.61353	-0.68488	0.26358	0.29141	23.7	13111	100
2025-5-25 10:6:20.969	WT901BLE68(801231B9234C)	-0.139	1.021	0.319	87.341	29.785	60.486	98.81	1.19	-49.64	18.228	-27.048	-24.304	-0.61353	-0.68488	0.26358	0.29141	23.7	13111	100
2025-5-25 10:6:21.22	WT901BLE68(801231B9234C)	-0.259	1.016	0.338	80.505	57.251	61.768	100.24	-0.02	-49.35	18.228	-27.048	-24.304	-0.61353	-0.68488	0.26358	0.29141	23.7	13111	100
2025-5-25 10:6:21.22	WT901BLE68(801231B9234C)	-0.278	1.031	0.396	70.496	66.101	57.190	101.49	-1.22	-48.81	18.228	-27.048	-24.304	-0.61353	-0.68488	0.26358	0.29141	23.7	13111	100
2025-5-25 10:6:21.58	WT901BLE68(801231B9234C)	-0.339	1.027	0.425	56.152	61.035	71.838	102.45	-2.53	-48.42	18.228	-27.048	-24.304	-0.61353	-0.68488	0.26358	0.29141	23.7	13111	100
2025-5-25 10:6:21.58	WT901BLE68(801231B9234C)	-0.350	0.894	0.478	38.635	47.607	75.073	103.05	-3.94	-48.30	18.228	-27.048	-24.304	-0.61353	-0.68488	0.26358	0.29141	23.7	13111	100
2025-5-25 10:6:21.103	WT901BLE68(801231B9234C)	-0.333	0.846	0.512	28.198	26.001	71.228	103.42	-5.16	-48.58	18.228	-27.048	-24.304	-0.61353	-0.68488	0.26358	0.29141	23.7	13111	100
2025-5-25 10:6:21.103	WT901BLE68(801231B9234C)	-0.359	0.844	0.537	15.015	7.568	65.063	103.58	-6.15	-49.24	18.228	-27.048	-24.304	-0.61353	-0.68488	0.26358	0.29141	23.7	13111	100
2025-5-25 10:6:21.125	WT901BLE68(801231B9234C)	-0.391	0.864	0.537	3.479	-7.385	54.443	103.52	-6.86	-50.15	-22.736	-39.298	-4.116	-0.61353	-0.68488	0.26358	0.29141	23.7	13111	100
2025-5-25 10:6:21.125	WT901BLE68(801231B9234C)	-0.398	0.957	0.516	-7.263	-20.569	40.039	103.27	-7.22	-51.27	-22.736	-39.298	-4.116	-0.61353	-0.68488	0.26358	0.29141	23.7	13111	100
2025-5-25 10:6:21.172	WT901BLE68(801231B9234C)	-0.373	1.067	0.462	-19.348	-28.992	21.973	102.79	-7.21	-52.49	-22.736	-39.298	-4.116	-0.61353	-0.68488	0.26358	0.29141	23.7	13111	100
2025-5-25 10:6:21.172	WT901BLE68(801231B9234C)	-0.380	1.131	0.370	-31.372	-28.748	-2.319	102.07	-6.76	-53.64	-22.736	-39.298	-4.116	-0.61353	-0.68488	0.26358	0.29141	23.7	13111	100
2025-5-25 10:6:21.222	WT901BLE68(801231B9234C)	-0.386	1.267	0.332	-41.199	-32.349	-28.870	101.13	-5.84	-54.68	-22.736	-39.298	-4.116	-0.61353	-0.68488	0.26358	0.29141	23.7	13111	100
2025-5-25 10:6:21.223	WT901BLE68(801231B9234C)	-0.364	1.487	0.264	-49.194	-37.781	-52.246	100.03	-4.45	-55.73	-22.736	-39.298	-4.116	-0.61353	-0.68488	0.26358	0.29141	23.7	13111	100
2025-5-25 10:6:21.259	WT901BLE68(801231B9234C)	-0.330	1.544	0.160	-65.186	-40.161	-49.744	98.72	-2.82	-56.78	-22.736	-39.298	-4.116	-0.61353	-0.68488	0.26358	0.29141	23.7	13111	100
2025-5-25 10:6:21.259	WT901BLE68(801231B9234C)	-0.296	1.693	0.155	-71.045	-35.645	-70.557	97.19	-1.12	-57.77	-22.736	-39.298	-4.116	-0.61353	-0.68488	0.26358	0.29141	23.7	13111	100
2025-5-25 10:6:21.304	WT901BLE68(801231B9234C)	-0.268	1.568	0.104	-75.684	-28.625	-81.421	95.54	0.73	-58.63	-22.736	-39.298	-4.116	-0.61353	-0.68488	0.26358	0.29141	23.7	13111	100
2025-5-25 10:6:21.304	WT901BLE68(801231B9234C)	-0.256	1.399	0.078	-76.660	-27.039	-96.802	93.86	2.77	-59.40	-22.736	-39.298	-4.116	-0.61353	-0.68488	0.26358	0.29141	23.7	13111	100
2025-5-25 10:6:21.328	WT901BLE68(801231B9234C)	-0.266	1.238	0.057	-75.378	-34.363	-113.708	92.19	5.11	-60.24	-22.736	-39.298	-4.116	-0.58136	-0.63815	0.33588	0.37665	23.7	13111	100
2025-5-25 10:6:21.328	WT901BLE68(801231B9234C)	-0.281	1.179	0.034	-73.608	-54.504	-125.366	90.53	7.68	-61.41	-22.736	-39.298	-4.116	-0.58136	-0.63815	0.33588	0.37665	23.7	13111	100
2025-5-25 10:6:21.374	WT901BLE68(801231B9234C)	-0.313	1.182	0.005	-71.899	-79.590	-127.625	88.79	10.29	-63.10	-22.736	-39.298	-4.116	-0.58136	-0.63815	0.33588	0.37665	23.7	13111	100
2025-5-25 10:6:21.374	WT901BLE68(801231B9234C)	-0.313	1.230	-0.019	-73.547	-112.061	-123.779	86.89	12.78	-65.42	-22.736	-39.298	-4.116	-0.58136	-0.63815	0.33588	0.37665	23.7	13111	100
2025-5-25 10:6:21.439	WT901BLE68(801231B9234C)	-0.295	1.253	-0.049	-77.271	-140.930	-113.342	84.70	14.95	-68.42	-22.736	-39.298	-4.116	-0.58136	-0.63815	0.33588	0.37665	23.7	13111	100
2025-5-25 10:6:21.440	WT901BLE68(801231B9234C)	-0.222	1.230	-0.072	-82.581	-162.659	-103.760	82.22	16.74	-71.93	-22.736	-39.298	-4.116	-0.58136	-0.63815	0.33588	0.37665	23.7	13111	100
2025-5-25 10:6:21.464	WT901BLE68(801231B9234C)	-0.140	1.191	-0.102	-87.646	-167.847	-95.581	79.49	18.13	-75.70	-22.736	-39.298	-4.116	-0.58136	-0.63815	0.33588	0.37665	23.7	13111	100
2025-5-25 10:6:21.464	WT901BLE68(801231B9234C)	-0.099	1.161	-0.118	-90.515	-154.541	-91.980	76.68	19.26	-79.30	-22.736	-39.298	-4.116	-0.58136	-0.63815	0.33588	0.37665	23.7	13111	100
2025-5-25 10:6:21.506	WT901BLE68(801231B9234C)	-0.084	1.146	-0.107	-91.858	-129.822	-93.018	73.94	20.30	-82.46	-22.736	-39.298	-4.116	-0.58136	-0.63815	0.33588	0.37665	23.7	13111	100
2025-5-25 10:6:21.507	WT901BLE68(801231B9234C)	-0.084	1.136	-0.098	-92.468	-101.685	-95.337	71.34	21.37	-85.07	-22.736	-39.298	-4.116	-0.58136	-0.63815	0.33588	0.37665	23.7	13111	100
2025-5-25 10:6:21.530	WT901BLE68(801231B9234C)	-0.091	1.122	-0.099	-92.651	-69.153	-98.022	68.93	22.58	-87.08	-14.602	-39.592	-11.172	-0.58136	-0.63815	0.33588	0.37665	23.7	13111	100
2025-5-25 10:6:21.531	WT901BLE68(801231B9234C)	-0.095	1.099	-0.104	-91.675	-34.546	-99.487	66.76	23.99	-88.41	-14.602	-39.592	-11.172	-0.58136	-0.63815	0.33588	0.37665	23.7	13111	100
2025-5-25 10:6:21.576	WT901BLE68(801231B9234C)	-0.099	1.083	-0.111	-90.027	-4.211	-101.135	64.84	25.61	-89.12	-14.602	-39.592	-11.172	-0.58136	-0.63815	0.33588	0.37665	23.7	13111	100
2025-5-25 10:6:21.576	WT901BLE68(801231B9234C)	-0.097	1.043	-0.119	-86.182	23.010	-104.431	63.20	27.50	-89.29	-14.602	-39.592	-11.172	-0.58136	-0.63815	0.33588	0.37665	23.7	13111	100
2025-5-25 10:6:21.624	WT901BLE68(801231B9234C)	-0.079	0.986	-0.129	-80.078	48.218	-109.131	61.88	29.67	-88.99	-14.602	-39.592	-11.172	-0.58136	-0.63815	0.33588	0.37665	23.7	13111	100
2025-5-25 10:6:21.624	WT901BLE68(801231B9234C)	-0.090	0.935	-0.110	-71.716	73.792	-115.601	60.94	32.18	-88.21	-14.602	-39.592	-11.172	-0.58136	-0.63815	0.33588	0.37665	23.7	13111	100
2025-5-25 10:6:21.665	WT901BLE68(801231B9234C)	-0.124	0.892	-0.065	-64.758	98.938	-128.723	60.42	35.10	-86.97	-14.602	-39.592	-11.172	-0.58136	-0.63815	0.33588	0.37665	23.7	13111	100
2025-5-25 10:6:21.665	WT901BLE68(801231B9234C)	-0.116	0.915	-0.030	-58.899	115.601	-141.663	60.23	38.45	-85.41	-14.602	-39.592	-11.172	-0.58136	-0.63815	0.33588	0.37665	23.7	13111	100
2025-5-25 10:6:21.709	WT901BLE68(801231B9234C)	-0.144	0.917	0.042	-56.213	123.718	-152.039	60.31	42.07	-83.60	-14.602	-39.592	-11.172	-0.58136	-0.63815	0.33588	0.37665	23.7	13111	100
2025-5-25 10:6:21.709	WT901BLE68(801231B9234C)	-0.172	0.868	0.067	-54.138	123.718	-155.823	60.53	45.84	-81.65	-14.602	-39.592	-11.172	-0.58136	-0.63815	0.33588	0.37665	23.7	13111	100
2025-5-25 10:6:21.733	WT901BLE68(801231B9234C)	-0.250	0.705	0.134	-45.410	120.972	-143.311	61.09	49.43	-79.45	-14.602	-39.592	-11.172	-0.46402	-0.58914	0.01752	0.66119	23.7	13111	100
2025-5-25 10:6:21.733	WT901BLE68(801231B9234C)	-0.379	0.469	0.211	-32.349	100.769	-124.084	61.90	52.61	-77.16	-14.602	-39.592	-11.172	-0.46402	-0.58914	0.01752	0.66119	23.7	13111	100
2025-5-25 10:6:21.777	WT901BLE68(801231B9234C)	-0.404	0.405	0.284	-15.076	69.458	-99.792	62.94	55.07	-75.05	-14.602	-39.592	-11.172	-0.46402	-0.58914	0.01752	0.66119	23.7	13111	100
2025-5-25 10:6:21.777	WT901BLE68(801231B9234C)	-0.332	0.420	0.323	2.197	23.560	-66.772	63.67	56.57	-73.75	-14.602	-39.592	-11.172	-0.46402	-0.58914	0.01752	0.66119	23.7	13111	100
2025-5-25 10:6:21.823	WT901BLE68(801231B9234C)	-0.248	0.495	0.366	13.489	-13.245	-36.133	63.84	57.12	-73.37	-14.602	-39.592	-11.172	-0.46402	-0.58914	0.01752	0.66119	23.7	13111	100
2025-5-25 10:6:21.824	WT901BLE68(801231B9234C)	-0.186	0.577	0.330	20.203	-21.484	-4.456	63.98	56.95	-73.16	-14.602	-39.592	-11.172	-0.46402	-0.58914	0.01752	0.66119	23.7	13111	100
2025-5-25 10:6:21.867	WT901BLE68(801231B9234C)	-0.163	0.691	0.169	32.471	-3.601	38.086	65.03	56.19	-72.01	-14.602	-39.592	-11.172	-0.46402	-0.58914	0.01752	0.66119	23.7	13111	100
2025-5-25 10:6:21.867	WT901BLE68(801231B9234C)	-0.227	0.855	0.101	48.401	33.081	93.750	67.71	54.72	-69.19	-14.602	-39.592	-11.172	-0.46402	-0.58914	0.01752	0.66119	23.7	13111	100
2025-5-25 10:6:21.892	WT901BLE68(801231B9234C)	-0.414	1.038	0.178	66.284	71.106	144.714	72.04	52.45	-64.68	-14.602	-39.592	-11.172	-0.46402	-0.58914	0.01752	0.66119	23.7	13111	100
2025-5-25 10:6:21.892	WT901BLE68(801231B9234C)	-0.545	1.178	0.270	76.782	75.012	183.472	76.78	49.26	-59.83	-14.602	-39.592	-11.172	-0.46402	-0.58914	0.01752	0.66119	23.7	13111	100
2025-5-25 10:6:21.934	WT901BLE68(801231B9234C)	-0.446	1.228	0.303	78.369	43.213	209.656	80.58	45.25	-56.15	13.230	-34.986	-18.718	-0.46402	-0.58914	0.01752	0.66119	23.7	13111	100
2025-5-25 10:6:21.934	WT901BLE68(801231B9234C)	-0.347	1.263	0.265	79.895	2.991	231.506	83.13	40.58	-54.16	13.230	-34.986	-18.718	-0.46402	-0.58914	0.01752	0.66119	23.7	13111	100
2025-5-25 10:6:21.979	WT901BLE68(801231B9234C)	-0.292	1.420	0.228	83.191	-16.357	241.455	84.96	35.58	-53.32	13.230	-34.986	-18.718	-0.46402	-0.58914	0.01752	0.66119	23.7	13111	100
2025-5-25 10:6:21.979	WT901BLE68(801231B9234C)	-0.257	1.514	0.252	82.581	-21.729	236.877	86.53	30.56	-53.03	13.230	-34.986	-18.718	-0.46402	-0.58914	0.01752	0.66119	23.7	13111	100
2025-5-25 10:6:22.24	WT901BLE68(801231B9234C)	-0.182	1.502	0.301	75.562	-23.987	215.576	87.86	25.91	-53.13	13.230	-34.986	-18.718	-0.46402	-0.58914	0.01752	0.66119	23.7	13111	100
2025-5-25 10:6:22.24	WT901BLE68(801231B9234C)	-0.161	1.482	0.286	67.017	-11.963	192.322	89.01	21.77	-53.41	13.230	-34.986	-18.718	-0.46402	-0.58914	0.01752	0.66119	23.7	13111	100
2025-5-25 10:6:22.122	WT901BLE68(801231B9234C)	-0.186	1.503	0.250	61.768	16.663	167.725	90.18	18.18	-53.40	13.230	-34.986	-18.718	-0.46402	-0.58914	0.01752	0.66119	23.7	13111	100
2025-5-25 10:6:22.123	WT901BLE68(801231B9234C)	-0.218	1.411	0.219	54.749	39.490	144.470	91.33	15.07	-52.99	13.230	-34.986	-18.718	-0.46402	-0.58914	0.01752	0.66119	23.7	13111	100
2025-5-25 10:6:22.123	WT901BLE68(801231B9234C)	-0.305	1.278	0.236	51.392	50.293	124.084	92.42	12.40	-52.40	13.230	-34.986	-18.718	-0.46402	-0.58914	0.01752	0.66119	23.7	13111	100
2025-5-25 10:6:22.123	WT901BLE68(801231B9234C)	-0.351	1.146	0.273	47.241	42.725	100.098	93.39	10.21	-51.92	13.230	-34.986	-18.718	-0.46402	-0.58914	0.01752	0.66119	23.7	13111	100
2025-5-25 10:6:22.139	WT901BLE68(801231B9234C)	-0.324	1.029	0.291	45.593	20.996	79.895	94.21	8.50	-51.84	13.230	-34.986	-18.718	-0.46402	-0.58914	0.01752	0.66119	23.7	13111	100
2025-5-25 10:6:22.139	WT901BLE68(801231B9234C)	-0.272	0.951	0.286	44.922	-6.226	62.195	94.93	7.26	-52.31	13.230	-34.986	-18.718	-0.58185	-0.67993	0.29642	0.33344	23.7	13111	100
2025-5-25 10:6:22.181	WT901BLE68(801231B9234C)	-0.223	0.894	0.271	42.908	-27.344	48.035	95.58	6.41	-53.27	13.230	-34.986	-18.718	-0.58185	-0.67993	0.29642	0.33344	23.7	13111	100
2025-5-25 10:6:22.182	WT901BLE68(801231B9234C)	-0.182	0.833	0.259	40.344	-35.889	38.330	96.14	5.82	-54.49	13.230	-34.986	-18.718	-0.58185	-0.67993	0.29642	0.33344	23.7	13111	100
2025-5-25 10:6:22.226	WT901BLE68(801231B9234C)	-0.160	0.765	0.242	37.048	-31.921	32.471	96.65	5.41	-55.72	13.230	-34.986	-18.718	-0.58185	-0.67993	0.29642	0.33344	23.7	13111	100
2025-5-25 10:6:22.227	WT901BLE68(801231B9234C)	-0.166	0.716	0.229	33.752	-19.653	30.823	97.10	5.05	-56.77	13.230	-34.986	-18.718	-0.58185	-0.67993	0.29642	0.33344	23.7	13111	100
2025-5-25 10:6:22.273	WT901BLE68(801231B9234C)	-0.137	0.684	0.220	29.297	-5.798	29.419	97.49	4.69	-57.54	13.230	-34.986	-18.718	-0.58185	-0.67993	0.29642	0.33344	23.7	13111	100
2025-5-25 10:6:22.273	WT901BLE68(801231B9234C)	-0.148	0.681	0.196	25.940	13.123	34.302	97.82	4.23	-58.02	13.230	-34.986	-18.718	-0.58185	-0.67993	0.29642	0.33344	23.7	13111	100
2025-5-25 10:6:22.296	WT901BLE68(801231B9234C)	-0.174	0.685	0.189	23.926	32.715	39.917	98.12	3.63	-58.13	13.230	-34.986	-18.718	-0.58185	-0.67993	0.29642	0.33344	23.7	13111	100
2025-5-25 10:6:22.296	WT901BLE68(801231B9234C)	-0.219	0.699	0.187	22.278	50.171	48.401	98.39	2.82	-57.90	13.230	-34.986	-18.718	-0.58185	-0.67993	0.29642	0.33344	23.7	13111	100
2025-5-25 10:6:22.340	WT901BLE68(801231B9234C)	-0.252	0.709	0.179	21.118	61.096	55.786	98.65	1.83	-57.44	-20.090	-40.768	-3.332	-0.58185	-0.67993	0.29642	0.33344	23.7	13111	100
2025-5-25 10:6:22.340	WT901BLE68(801231B9234C)	-0.279	0.721	0.175	22.339	63.416	63.293	98.89	0.69	-56.89	-20.090	-40.768	-3.332	-0.58185	-0.67993	0.29642	0.33344	23.7	13111	100
2025-5-25 10:6:22.384	WT901BLE68(801231B9234C)	-0.314	0.768	0.218	24.170	58.777	70.190	99.16	-0.57	-56.41	-20.090	-40.768	-3.332	-0.58185	-0.67993	0.29642	0.33344	23.7	13111	100
2025-5-25 10:6:22.385	WT901BLE68(801231B9234C)	-0.316	0.814	0.272	22.339	47.974	73.303	99.41	-1.87	-56.12	-20.090	-40.768	-3.332	-0.58185	-0.67993	0.29642	0.33344	23.7	13111	100
2025-5-25 10:6:22.429	WT901BLE68(801231B9234C)	-0.325	0.794	0.306	21.179	38.330	73.914	99.62	-3.14	-56.05	-20.090	-40.768	-3.332	-0.58185	-0.67993	0.29642	0.33344	23.7	13111	100
2025-5-25 10:6:22.429	WT901BLE68(801231B9234C)	-0.356	0.838	0.335	18.616	28.137	67.627	99.79	-4.27	-56.16	-20.090	-40.768	-3.332	-0.58185	-0.67993	0.29642	0.33344	23.7	13111	100
2025-5-25 10:6:22.474	WT901BLE68(801231B9234C)	-0.404	0.944	0.349	14.954	18.860	60.120	99.91	-5.21	-56.43	-20.090	-40.768	-3.332	-0.58185	-0.67993	0.29642	0.33344	23.7	13111	100
2025-5-25 10:6:22.475	WT901BLE68(801231B9234C)	-0.394	1.114	0.343	7.263	2.441	44.128	99.92	-5.84	-56.90	-20.090	-40.768	-3.332	-0.58185	-0.67993	0.29642	0.33344	23.7	13111	100
2025-5-25 10:6:22.497	WT901BLE68(801231B9234C)	-0.363	1.277	0.310	-0.122	-11.841	24.780	99.81	-6.06	-57.61	-20.090	-40.768	-3.332	-0.58185	-0.67993	0.29642	0.33344	23.7	13111	100
2025-5-25 10:6:22.497	WT901BLE68(801231B9234C)	-0.315	1.479	0.269	-8.728	-15.625	-1.404	99.55	-5.80	-58.39	-20.090	-40.768	-3.332	-0.58185	-0.67993	0.29642	0.33344	23.7	13111	100
2025-5-25 10:6:22.542	WT901BLE68(801231B9234C)	-0.273	1.635	0.209	-22.034	-5.066	-30.884	99.05	-5.04	-58.94	-20.090	-40.768	-3.332	-0.57968	-0.64804	0.39984	0.28986	23.7	13111	100
2025-5-25 10:6:22.542	WT901BLE68(801231B9234C)	-0.275	1.587	0.168	-32.959	15.747	-58.105	98.28	-3.81	-59.05	-20.090	-40.768	-3.332	-0.57968	-0.64804	0.39984	0.28986	23.7	13111	100
2025-5-25 10:6:22.588	WT901BLE68(801231B9234C)	-0.245	1.439	0.167	-39.734	27.466	-93.628	97.32	-2.05	-58.73	-20.090	-40.768	-3.332	-0.57968	-0.64804	0.39984	0.28986	23.7	13111	100
2025-5-25 10:6:22.588	WT901BLE68(801231B9234C)	-0.269	1.312	0.174	-39.124	22.034	-126.343	96.37	0.37	-58.33	-20.090	-40.768	-3.332	-0.57968	-0.64804	0.39984	0.28986	23.7	13111	100
2025-5-25 10:6:22.632	WT901BLE68(801231B9234C)	-0.292	1.234	0.148	-37.354	7.080	-152.710	95.48	3.38	-58.15	-20.090	-40.768	-3.332	-0.57968	-0.64804	0.39984	0.28986	23.7	13111	100
2025-5-25 10:6:22.632	WT901BLE68(801231B9234C)	-0.313	1.223	0.103	-35.156	-16.113	-166.809	94.63	6.77	-58.36	-20.090	-40.768	-3.332	-0.57968	-0.64804	0.39984	0.28986	23.7	13111	100
2025-5-25 10:6:22.677	WT901BLE68(801231B9234C)	-0.321	1.215	0.085	-34.668	-46.326	-170.166	93.74	10.30	-59.13	-20.090	-40.768	-3.332	-0.57968	-0.64804	0.39984	0.28986	23.7	13111	100
2025-5-25 10:6:22.677	WT901BLE68(801231B9234C)	-0.291	1.234	0.064	-36.133	-78.918	-166.748	92.70	13.79	-60.60	-20.090	-40.768	-3.332	-0.57968	-0.64804	0.39984	0.28986	23.7	13111	100
2025-5-25 10:6:22.701	WT901BLE68(801231B9234C)	-0.241	1.235	0.051	-37.231	-112.793	-156.555	91.33	17.10	-62.85	-20.090	-40.768	-3.332	-0.57968	-0.64804	0.39984	0.28986	23.7	13111	100
2025-5-25 10:6:22.702	WT901BLE68(801231B9234C)	-0.185	1.189	0.052	-39.368	-131.897	-148.376	89.68	20.09	-65.69	-20.090	-40.768	-3.332	-0.57968	-0.64804	0.39984	0.28986	23.7	13111	100
2025-5-25 10:6:22.745	WT901BLE68(801231B9234C)	-0.120	1.133	0.043	-42.480	-144.653	-139.465	87.68	22.84	-68.97	-13.230	-41.944	-6.370	-0.57968	-0.64804	0.39984	0.28986	23.7	13111	100
2025-5-25 10:6:22.745	WT901BLE68(801231B9234C)	-0.092	1.072	0.035	-45.715	-137.024	-134.094	85.47	25.26	-72.32	-13.230	-41.944	-6.370	-0.57968	-0.64804	0.39984	0.28986	23.7	13111	100
2025-5-25 10:6:22.789	WT901BLE68(801231B9234C)	-0.077	1.014	0.018	-46.875	-118.530	-132.202	83.22	27.50	-75.44	-13.230	-41.944	-6.370	-0.57968	-0.64804	0.39984	0.28986	23.7	13111	100
2025-5-25 10:6:22.789	WT901BLE68(801231B9234C)	-0.077	0.974	0.006	-48.096	-96.375	-128.662	81.04	29.60	-78.16	-13.230	-41.944	-6.370	-0.57968	-0.64804	0.39984	0.28986	23.7	13111	100
2025-5-25 10:6:22.834	WT901BLE68(801231B9234C)	-0.090	0.943	0.006	-49.377	-73.669	-125.854	78.99	31.59	-80.41	-13.230	-41.944	-6.370	-0.57968	-0.64804	0.39984	0.28986	23.7	13111	100
2025-5-25 10:6:22.834	WT901BLE68(801231B9234C)	-0.098	0.908	-0.002	-50.598	-53.223	-121.765	77.09	33.50	-82.19	-13.230	-41.944	-6.370	-0.57968	-0.64804	0.39984	0.28986	23.7	13111	100
2025-5-25 10:6:22.859	WT901BLE68(801231B9234C)	-0.095	0.868	-0.004	-52.063	-37.109	-117.676	75.35	35.34	-83.53	-13.230	-41.944	-6.370	-0.57968	-0.64804	0.39984	0.28986	23.7	13111	100
2025-5-25 10:6:22.859	WT901BLE68(801231B9234C)	-0.088	0.827	-0.001	-52.673	-23.499	-114.197	73.76	37.14	-84.50	-13.230	-41.944	-6.370	-0.57968	-0.64804	0.39984	0.28986	23.7	13111	100
2025-5-25 10:6:22.903	WT901BLE68(801231B9234C)	-0.089	0.791	-0.005	-52.002	-9.338	-110.657	72.36	38.93	-85.07	-13.230	-41.944	-6.370	-0.57968	-0.64804	0.39984	0.28986	23.7	13111	100
2025-5-25 10:6:22.904	WT901BLE68(801231B9234C)	-0.094	0.774	-0.002	-50.049	4.944	-106.384	71.21	40.72	-85.20	-13.230	-41.944	-6.370	-0.57968	-0.64804	0.39984	0.28986	23.7	13111	100
2025-5-25 10:6:22.948	WT901BLE68(801231B9234C)	-0.100	0.779	-0.008	-46.875	18.433	-100.464	70.37	42.51	-84.88	-13.230	-41.944	-6.370	-0.41986	-0.59970	0.13715	0.66721	23.7	13111	100
2025-5-25 10:6:22.948	WT901BLE68(801231B9234C)	-0.102	0.813	-0.009	-42.969	29.480	-90.942	69.89	44.22	-84.08	-13.230	-41.944	-6.370	-0.41986	-0.59970	0.13715	0.66721	23.7	13111	100
2025-5-25 10:6:23.23	WT901BLE68(801231B9234C)	-0.113	0.867	-0.009	-38.269	39.185	-77.148	69.80	45.80	-82.80	-13.230	-41.944	-6.370	-0.41986	-0.59970	0.13715	0.66721	23.7	13111	100
2025-5-25 10:6:23.23	WT901BLE68(801231B9234C)	-0.117	0.907	-0.012	-33.081	47.913	-59.814	70.17	47.15	-81.00	-13.230	-41.944	-6.370	-0.41986	-0.59970	0.13715	0.66721	23.7	13111	100
2025-5-25 10:6:23.39	WT901BLE68(801231B9234C)	-0.115	0.939	-0.017	-26.550	55.420	-39.734	71.02	48.19	-78.68	-13.230	-41.944	-6.370	-0.41986	-0.59970	0.13715	0.66721	23.7	13111	100
2025-5-25 10:6:23.39	WT901BLE68(801231B9234C)	-0.131	0.933	-0.021	-17.700	63.110	-15.381	72.39	48.82	-75.84	-13.230	-41.944	-6.370	-0.41986	-0.59970	0.13715	0.66721	23.7	13111	100
2025-5-25 10:6:23.82	WT901BLE68(801231B9234C)	-0.134	0.893	0.001	-7.446	68.176	10.986	74.33	48.97	-72.52	-13.230	-41.944	-6.370	-0.41986	-0.59970	0.13715	0.66721	23.7	13111	100
2025-5-25 10:6:23.82	WT901BLE68(801231B9234C)	-0.156	0.959	0.009	6.226	72.754	44.250	76.73	48.46	-68.86	-13.230	-41.944	-6.370	-0.41986	-0.59970	0.13715	0.66721	23.7	13111	100
2025-5-25 10:6:23.106	WT901BLE68(801231B9234C)	-0.186	1.046	0.020	21.179	75.134	82.214	79.51	47.19	-65.02	-13.230	-41.944	-6.370	-0.41986	-0.59970	0.13715	0.66721	23.7	13111	100
2025-5-25 10:6:23.106	WT901BLE68(801231B9234C)	-0.236	1.061	0.038	37.659	74.402	121.033	82.51	45.04	-61.19	-13.230	-41.944	-6.370	-0.41986	-0.59970	0.13715	0.66721	23.7	13111	100
2025-5-25 10:6:23.172	WT901BLE68(801231B9234C)	-0.246	1.007	0.095	54.810	66.895	157.898	85.46	42.02	-57.76	10.486	-40.278	-11.466	-0.41986	-0.59970	0.13715	0.66721	23.7	13111	100
2025-5-25 10:6:23.173	WT901BLE68(801231B9234C)	-0.333	0.947	0.210	68.604	42.175	190.552	87.93	38.27	-55.24	10.486	-40.278	-11.466	-0.41986	-0.59970	0.13715	0.66721	23.7	13111	100
2025-5-25 10:6:23.240	WT901BLE68(801231B9234C)	-0.418	1.019	0.375	72.754	8.606	202.637	89.91	34.01	-53.77	10.486	-40.278	-11.466	-0.41986	-0.59970	0.13715	0.66721	23.7	13111	100
2025-5-25 10:6:23.240	WT901BLE68(801231B9234C)	-0.327	1.162	0.472	63.171	-43.396	211.060	90.91	29.62	-54.00	10.486	-40.278	-11.466	-0.41986	-0.59970	0.13715	0.66721	23.7	13111	100
2025-5-25 10:6:23.241	WT901BLE68(801231B9234C)	-0.138	1.191	0.423	59.692	-85.510	215.210	91.12	25.27	-56.07	10.486	-40.278	-11.466	-0.41986	-0.59970	0.13715	0.66721	23.7	13111	100
2025-5-25 10:6:23.241	WT901BLE68(801231B9234C)	-0.085	1.352	0.315	61.646	-91.003	209.106	91.36	21.04	-58.66	10.486	-40.278	-11.466	-0.41986	-0.59970	0.13715	0.66721	23.7	13111	100
2025-5-25 10:6:23.284	WT901BLE68(801231B9234C)	-0.036	1.545	0.210	49.744	-75.867	210.205	91.66	16.89	-61.11	10.486	-40.278	-11.466	-0.41986	-0.59970	0.13715	0.66721	23.7	13111	100
2025-5-25 10:6:23.285	WT901BLE68(801231B9234C)	-0.021	1.423	0.232	41.931	-39.734	189.270	92.04	12.97	-62.89	10.486	-40.278	-11.466	-0.41986	-0.59970	0.13715	0.66721	23.7	13111	100
2025-5-25 10:6:23.309	WT901BLE68(801231B9234C)	-0.064	1.319	0.280	30.762	15.930	151.245	92.53	9.67	-63.66	10.486	-40.278	-11.466	-0.41986	-0.59970	0.13715	0.66721	23.7	13111	100
2025-5-25 10:6:23.309	WT901BLE68(801231B9234C)	-0.132	1.165	0.295	17.151	72.693	108.643	92.92	7.17	-63.24	10.486	-40.278	-11.466	-0.41986	-0.59970	0.13715	0.66721	23.7	13111	100
2025-5-25 10:6:23.354	WT901BLE68(801231B9234C)	-0.168	1.032	0.253	7.507	105.164	71.655	93.15	5.43	-61.92	10.486	-40.278	-11.466	-0.57681	-0.64157	0.34787	0.36679	23.7	13111	100
2025-5-25 10:6:23.354	WT901BLE68(801231B9234C)	-0.203	0.952	0.196	2.869	121.582	43.945	93.24	4.30	-60.19	10.486	-40.278	-11.466	-0.57681	-0.64157	0.34787	0.36679	23.7	13111	100
2025-5-25 10:6:23.398	WT901BLE68(801231B9234C)	-0.252	0.918	0.127	-1.709	128.967	25.391	93.22	3.61	-58.20	10.486	-40.278	-11.466	-0.57681	-0.64157	0.34787	0.36679	23.7	13111	100
2025-5-25 10:6:23.398	WT901BLE68(801231B9234C)	-0.293	0.883	0.063	-6.714	129.761	16.968	93.11	3.18	-56.11	10.486	-40.278	-11.466	-0.57681	-0.64157	0.34787	0.36679	23.7	13111	100
2025-5-25 10:6:23.442	WT901BLE68(801231B9234C)	-0.336	0.892	0.023	-7.446	123.535	19.226	92.96	2.79	-54.07	10.486	-40.278	-11.466	-0.57681	-0.64157	0.34787	0.36679	23.7	13111	100
2025-5-25 10:6:23.443	WT901BLE68(801231B9234C)	-0.369	0.861	0.016	-7.813	109.985	25.574	92.80	2.33	-52.23	10.486	-40.278	-11.466	-0.57681	-0.64157	0.34787	0.36679	23.7	13111	100
2025-5-25 10:6:23.466	WT901BLE68(801231B9234C)	-0.347	0.847	0.058	-8.545	90.698	36.682	92.62	1.72	-50.72	10.486	-40.278	-11.466	-0.57681	-0.64157	0.34787	0.36679	23.7	13111	100
2025-5-25 10:6:23.466	WT901BLE68(801231B9234C)	-0.327	0.813	0.096	-4.883	77.332	48.035	92.49	0.92	-49.54	10.486	-40.278	-11.466	-0.57681	-0.64157	0.34787	0.36679	23.7	13111	100
2025-5-25 10:6:23.509	WT901BLE68(801231B9234C)	-0.281	0.770	0.115	-3.174	58.044	57.373	92.34	0.03	-48.71	10.486	-40.278	-11.466	-0.57681	-0.64157	0.34787	0.36679	23.7	13111	100
2025-5-25 10:6:23.510	WT901BLE68(801231B9234C)	-0.275	0.720	0.143	-0.244	48.767	65.063	92.25	-1.04	-48.14	10.486	-40.278	-11.466	-0.57681	-0.64157	0.34787	0.36679	23.7	13111	100
2025-5-25 10:6:23.555	WT901BLE68(801231B9234C)	-0.321	0.701	0.139	5.432	42.603	73.059	92.23	-2.20	-47.72	-19.404	-38.710	-8.624	-0.57681	-0.64157	0.34787	0.36679	23.7	13111	100
2025-5-25 10:6:23.556	WT901BLE68(801231B9234C)	-0.388	0.727	0.166	11.047	34.302	81.421	92.33	-3.52	-47.45	-19.404	-38.710	-8.624	-0.57681	-0.64157	0.34787	0.36679	23.7	13111	100
2025-5-25 10:6:23.599	WT901BLE68(801231B9234C)	-0.431	0.829	0.188	14.221	14.465	85.571	92.52	-4.91	-47.49	-19.404	-38.710	-8.624	-0.57681	-0.64157	0.34787	0.36679	23.7	13111	100
2025-5-25 10:6:23.600	WT901BLE68(801231B9234C)	-0.450	1.010	0.194	14.526	-11.292	86.121	92.79	-6.28	-48.03	-19.404	-38.710	-8.624	-0.57681	-0.64157	0.34787	0.36679	23.7	13111	100
2025-5-25 10:6:23.623	WT901BLE68(801231B9234C)	-0.450	1.184	0.178	13.489	-34.058	74.707	93.10	-7.49	-49.06	-19.404	-38.710	-8.624	-0.57681	-0.64157	0.34787	0.36679	23.7	13111	100
2025-5-25 10:6:23.624	WT901BLE68(801231B9234C)	-0.428	1.398	0.163	14.282	-44.678	51.086	93.47	-8.27	-50.37	-19.404	-38.710	-8.624	-0.57681	-0.64157	0.34787	0.36679	23.7	13111	100
2025-5-25 10:6:23.667	WT901BLE68(801231B9234C)	-0.377	1.510	0.165	11.780	-35.095	15.808	93.81	-8.43	-51.59	-19.404	-38.710	-8.624	-0.57681	-0.64157	0.34787	0.36679	23.7	13111	100
2025-5-25 10:6:23.667	WT901BLE68(801231B9234C)	-0.212	1.415	0.174	3.662	-25.330	-25.574	93.96	-7.80	-52.49	-19.404	-38.710	-8.624	-0.57681	-0.64157	0.34787	0.36679	23.7	13111	100
2025-5-25 10:6:23.722	WT901BLE68(801231B9234C)	-0.087	1.311	0.185	1.709	-17.639	-68.298	93.99	-6.41	-53.17	-19.404	-38.710	-8.624	-0.57681	-0.64157	0.34787	0.36679	23.7	13111	100
2025-5-25 10:6:23.722	WT901BLE68(801231B9234C)	-0.086	1.272	0.180	-0.977	-2.747	-111.084	93.92	-4.19	-53.57	-19.404	-38.710	-8.624	-0.57681	-0.64157	0.34787	0.36679	23.7	13111	100
2025-5-25 10:6:23.757	WT901BLE68(801231B9234C)	-0.245	1.188	0.175	-5.554	27.893	-139.587	93.74	-1.41	-53.42	-19.404	-38.710	-8.624	-0.60880	-0.65591	0.32440	0.30624	23.7	13111	100
2025-5-25 10:6:23.758	WT901BLE68(801231B9234C)	-0.244	1.125	0.159	-9.705	39.001	-160.889	93.47	1.77	-52.84	-19.404	-38.710	-8.624	-0.60880	-0.65591	0.32440	0.30624	23.7	13111	100
2025-5-25 10:6:23.803	WT901BLE68(801231B9234C)	-0.314	1.143	0.142	-8.423	40.039	-162.048	93.25	5.11	-52.22	-19.404	-38.710	-8.624	-0.60880	-0.65591	0.32440	0.30624	23.7	13111	100
2025-5-25 10:6:23.804	WT901BLE68(801231B9234C)	-0.386	1.158	0.144	-6.226	32.471	-160.889	93.10	8.38	-51.68	-19.404	-38.710	-8.624	-0.60880	-0.65591	0.32440	0.30624	23.7	13111	100
2025-5-25 10:6:23.825	WT901BLE68(801231B9234C)	-0.376	1.212	0.164	-2.930	0.488	-152.649	92.98	11.56	-51.60	-19.404	-38.710	-8.624	-0.60880	-0.65591	0.32440	0.30624	23.7	13111	100
2025-5-25 10:6:23.826	WT901BLE68(801231B9234C)	-0.296	1.255	0.169	-2.991	-48.828	-144.470	92.70	14.59	-52.45	-19.404	-38.710	-8.624	-0.60880	-0.65591	0.32440	0.30624	23.7	13111	100
2025-5-25 10:6:23.870	WT901BLE68(801231B9234C)	-0.193	1.206	0.165	-8.789	-96.558	-137.939	92.02	17.49	-54.37	-19.404	-38.710	-8.624	-0.60880	-0.65591	0.32440	0.30624	23.7	13111	100
2025-5-25 10:6:23.870	WT901BLE68(801231B9234C)	-0.161	1.109	0.152	-9.521	-116.577	-138.184	91.02	20.28	-56.98	-19.404	-38.710	-8.624	-0.60880	-0.65591	0.32440	0.30624	23.7	13111	100
2025-5-25 10:6:23.937	WT901BLE68(801231B9234C)	-0.136	1.047	0.137	-10.193	-129.028	-138.489	89.74	23.03	-60.02	-19.404	-38.710	-8.624	-0.60880	-0.65591	0.32440	0.30624	23.7	13111	100
2025-5-25 10:6:23.937	WT901BLE68(801231B9234C)	-0.108	0.977	0.124	-11.841	-133.728	-139.221	88.21	25.67	-63.33	-19.404	-38.710	-8.624	-0.60880	-0.65591	0.32440	0.30624	23.7	13111	100
2025-5-25 10:6:23.962	WT901BLE68(801231B9234C)	-0.090	0.921	0.110	-14.282	-130.554	-139.282	86.46	28.20	-66.79	-19.404	-38.710	-8.624	-0.60880	-0.65591	0.32440	0.30624	23.7	13111	100
2025-5-25 10:6:23.962	WT901BLE68(801231B9234C)	-0.083	0.873	0.087	-16.357	-120.300	-136.292	84.57	30.57	-70.22	-19.404	-38.710	-8.624	-0.60880	-0.65591	0.32440	0.30624	23.7	13111	100
2025-5-25 10:6:24.4	WT901BLE68(801231B9234C)	-0.099	0.829	0.075	-17.883	-108.582	-130.493	82.61	32.74	-73.55	-4.312	-46.158	-2.842	-0.60880	-0.65591	0.32440	0.30624	23.7	13111	100
2025-5-25 10:6:24.4	WT901BLE68(801231B9234C)	-0.099	0.801	0.073	-19.958	-100.220	-123.230	80.60	34.68	-76.80	-4.312	-46.158	-2.842	-0.60880	-0.65591	0.32440	0.30624	23.7	13111	100
2025-5-25 10:6:24.28	WT901BLE68(801231B9234C)	-0.075	0.784	0.073	-23.193	-94.238	-113.953	78.48	36.35	-80.02	-4.312	-46.158	-2.842	-0.60880	-0.65591	0.32440	0.30624	23.7	13111	100
2025-5-25 10:6:24.28	WT901BLE68(801231B9234C)	-0.047	0.767	0.063	-27.344	-83.435	-102.539	76.31	37.74	-83.19	-4.312	-46.158	-2.842	-0.60880	-0.65591	0.32440	0.30624	23.7	13111	100
2025-5-25 10:6:24.72	WT901BLE68(801231B9234C)	-0.049	0.736	0.058	-30.823	-65.125	-90.149	74.19	38.86	-86.19	-4.312	-46.158	-2.842	-0.60880	-0.65591	0.32440	0.30624	23.7	13111	100
2025-5-25 10:6:24.72	WT901BLE68(801231B9234C)	-0.021	0.704	0.058	-33.936	-42.236	-78.613	72.17	39.81	-89.08	-4.312	-46.158	-2.842	-0.60880	-0.65591	0.32440	0.30624	23.7	13111	100
2025-5-25 10:6:24.122	WT901BLE68(801231B9234C)	-0.041	0.721	0.056	-33.813	-14.709	-59.143	70.37	40.63	-91.72	-4.312	-46.158	-2.842	-0.60880	-0.65591	0.32440	0.30624	23.7	13111	100
2025-5-25 10:6:24.122	WT901BLE68(801231B9234C)	-0.046	0.779	0.059	-34.485	10.803	-38.574	68.96	41.28	-93.70	-4.312	-46.158	-2.842	-0.60880	-0.65591	0.32440	0.30624	23.7	13111	100
2025-5-25 10:6:24.163	WT901BLE68(801231B9234C)	-0.054	0.854	0.055	-35.645	37.109	-11.658	69.09	42.11	-91.58	-4.312	-46.158	-2.842	-0.60880	-0.65591	0.32440	0.30624	23.7	13111	100
2025-5-25 10:6:24.163	WT901BLE68(801231B9234C)	-0.094	0.964	0.032	-36.621	62.622	18.616	69.86	42.53	-88.51	-4.312	-46.158	-2.842	-0.40234	-0.58966	0.16589	0.68027	23.7	13111	100
2025-5-25 10:6:24.207	WT901BLE68(801231B9234C)	-0.103	1.033	0.003	-34.607	90.637	49.805	71.32	42.48	-84.45	-4.312	-46.158	-2.842	-0.40234	-0.58966	0.16589	0.68027	23.7	13111	100
2025-5-25 10:6:24.207	WT901BLE68(801231B9234C)	-0.127	1.155	-0.041	-30.334	113.831	89.600	73.45	41.78	-79.49	-4.312	-46.158	-2.842	-0.40234	-0.58966	0.16589	0.68027	23.7	13111	100
2025-5-25 10:6:24.231	WT901BLE68(801231B9234C)	-0.143	1.271	-0.090	-20.935	139.465	127.869	76.16	40.31	-73.78	-4.312	-46.158	-2.842	-0.40234	-0.58966	0.16589	0.68027	23.7	13111	100
2025-5-25 10:6:24.231	WT901BLE68(801231B9234C)	-0.199	1.309	-0.126	-2.625	167.786	163.757	79.43	38.03	-67.47	-4.312	-46.158	-2.842	-0.40234	-0.58966	0.16589	0.68027	23.7	13111	100
2025-5-25 10:6:24.274	WT901BLE68(801231B9234C)	-0.311	1.221	-0.086	22.339	189.697	192.200	83.14	34.93	-60.85	-4.312	-46.158	-2.842	-0.40234	-0.58966	0.16589	0.68027	23.7	13111	100
2025-5-25 10:6:24.274	WT901BLE68(801231B9234C)	-0.470	1.160	0.065	39.185	175.293	209.778	86.77	31.11	-54.62	-4.312	-46.158	-2.842	-0.40234	-0.58966	0.16589	0.68027	23.7	13111	100
2025-5-25 10:6:24.322	WT901BLE68(801231B9234C)	-0.620	1.226	0.284	46.509	115.234	211.365	89.54	26.88	-49.86	-4.312	-46.158	-2.842	-0.40234	-0.58966	0.16589	0.68027	23.7	13111	100
2025-5-25 10:6:24.322	WT901BLE68(801231B9234C)	-0.584	1.299	0.406	44.495	0.366	189.941	90.82	22.88	-49.54	-4.312	-46.158	-2.842	-0.40234	-0.58966	0.16589	0.68027	23.7	13111	100
2025-5-25 10:6:24.365	WT901BLE68(801231B9234C)	-0.395	1.310	0.319	31.921	-136.780	153.687	90.76	19.61	-52.67	-4.312	-46.158	-2.842	-0.40234	-0.58966	0.16589	0.68027	23.7	13111	100
2025-5-25 10:6:24.365	WT901BLE68(801231B9234C)	-0.220	1.267	0.079	43.884	-216.919	121.948	90.12	17.06	-57.83	6.762	-51.058	5.684	-0.40234	-0.58966	0.16589	0.68027	23.7	13111	100
2025-5-25 10:6:24.409	WT901BLE68(801231B9234C)	-0.037	1.263	-0.081	48.218	-232.727	92.163	89.77	15.12	-63.46	6.762	-51.058	5.684	-0.40234	-0.58966	0.16589	0.68027	23.7	13111	100
2025-5-25 10:6:24.409	WT901BLE68(801231B9234C)	0.170	1.206	-0.070	39.185	-204.407	88.684	89.54	13.36	-68.79	6.762	-51.058	5.684	-0.40234	-0.58966	0.16589	0.68027	23.7	13111	100
2025-5-25 10:6:24.434	WT901BLE68(801231B9234C)	0.204	0.941	0.100	38.269	-133.301	64.270	89.57	11.90	-72.89	6.762	-51.058	5.684	-0.40234	-0.58966	0.16589	0.68027	23.7	13111	100
2025-5-25 10:6:24.434	WT901BLE68(801231B9234C)	0.144	0.863	0.220	33.020	-42.786	43.213	89.92	10.91	-75.33	6.762	-51.058	5.684	-0.40234	-0.58966	0.16589	0.68027	23.7	13111	100
2025-5-25 10:6:24.477	WT901BLE68(801231B9234C)	0.077	0.774	0.255	25.085	42.786	33.691	90.42	10.18	-76.03	6.762	-51.058	5.684	-0.40234	-0.58966	0.16589	0.68027	23.7	13111	100
2025-5-25 10:6:24.477	WT901BLE68(801231B9234C)	-0.025	0.719	0.190	18.127	114.624	28.809	91.00	9.56	-75.20	6.762	-51.058	5.684	-0.40234	-0.58966	0.16589	0.68027	23.7	13111	100
2025-5-25 10:6:24.523	WT901BLE68(801231B9234C)	-0.135	0.699	0.127	13.611	175.232	28.564	91.64	8.93	-73.10	6.762	-51.058	5.684	-0.40234	-0.58966	0.16589	0.68027	23.7	13111	100
2025-5-25 10:6:24.523	WT901BLE68(801231B9234C)	-0.268	0.706	0.089	10.864	208.252	33.081	92.29	8.19	-70.14	6.762	-51.058	5.684	-0.40234	-0.58966	0.16589	0.68027	23.7	13111	100
2025-5-25 10:6:24.567	WT901BLE68(801231B9234C)	-0.378	0.713	0.068	3.174	215.759	46.692	92.86	7.25	-66.84	6.762	-51.058	5.684	-0.40234	-0.58966	0.16589	0.68027	23.7	13111	100
2025-5-25 10:6:24.567	WT901BLE68(801231B9234C)	-0.472	0.810	0.102	5.493	194.763	59.509	93.33	6.00	-63.73	6.762	-51.058	5.684	-0.56088	-0.63684	0.35770	0.38956	23.7	13111	100
2025-5-25 10:6:24.591	WT901BLE68(801231B9234C)	-0.487	0.867	0.145	0.000	151.123	72.693	93.60	4.56	-61.33	6.762	-51.058	5.684	-0.56088	-0.63684	0.35770	0.38956	23.7	13111	100
2025-5-25 10:6:24.591	WT901BLE68(801231B9234C)	-0.438	0.840	0.181	-1.587	99.976	86.609	93.70	2.92	-59.90	6.762	-51.058	5.684	-0.56088	-0.63684	0.35770	0.38956	23.7	13111	100
2025-5-25 10:6:24.635	WT901BLE68(801231B9234C)	-0.372	0.757	0.197	3.052	53.162	95.581	93.75	1.22	-59.46	6.762	-51.058	5.684	-0.56088	-0.63684	0.35770	0.38956	23.7	13111	100
2025-5-25 10:6:24.635	WT901BLE68(801231B9234C)	-0.393	0.848	0.248	9.521	18.494	99.731	93.90	-0.50	-59.79	6.762	-51.058	5.684	-0.56088	-0.63684	0.35770	0.38956	23.7	13111	100
2025-5-25 10:6:24.679	WT901BLE68(801231B9234C)	-0.433	0.975	0.307	12.146	-9.583	97.412	94.14	-2.15	-60.72	6.762	-51.058	5.684	-0.56088	-0.63684	0.35770	0.38956	23.7	13111	100
2025-5-25 10:6:24.680	WT901BLE68(801231B9234C)	-0.404	1.050	0.323	10.803	-36.011	84.534	94.41	-3.55	-62.16	6.762	-51.058	5.684	-0.56088	-0.63684	0.35770	0.38956	23.7	13111	100
2025-5-25 10:6:24.726	WT901BLE68(801231B9234C)	-0.456	1.135	0.273	12.573	-50.293	70.496	94.73	-4.61	-63.99	6.762	-51.058	5.684	-0.56088	-0.63684	0.35770	0.38956	23.7	13111	100
2025-5-25 10:6:24.726	WT901BLE68(801231B9234C)	-0.374	1.152	0.264	7.141	-54.871	38.513	95.02	-5.16	-65.89	6.762	-51.058	5.684	-0.56088	-0.63684	0.35770	0.38956	23.7	13111	100
2025-5-25 10:6:24.770	WT901BLE68(801231B9234C)	-0.278	1.175	0.254	4.578	-62.439	4.639	95.24	-5.04	-67.84	6.762	-51.058	5.684	-0.56088	-0.63684	0.35770	0.38956	23.7	13111	100
2025-5-25 10:6:24.770	WT901BLE68(801231B9234C)	-0.134	1.374	0.231	-1.038	-64.697	-33.691	95.37	-4.15	-69.81	-9.604	-53.018	16.660	-0.56088	-0.63684	0.35770	0.38956	23.7	13111	100
2025-5-25 10:6:24.794	WT901BLE68(801231B9234C)	-0.134	1.406	0.200	-8.362	-49.927	-64.331	95.30	-2.66	-71.58	-9.604	-53.018	16.660	-0.56088	-0.63684	0.35770	0.38956	23.7	13111	100
2025-5-25 10:6:24.794	WT901BLE68(801231B9234C)	-0.171	1.467	0.181	-19.958	-16.418	-86.060	94.97	-0.75	-72.80	-9.604	-53.018	16.660	-0.56088	-0.63684	0.35770	0.38956	23.7	13111	100
2025-5-25 10:6:24.837	WT901BLE68(801231B9234C)	-0.211	1.419	0.148	-29.663	12.817	-95.642	94.37	1.31	-73.39	-9.604	-53.018	16.660	-0.56088	-0.63684	0.35770	0.38956	23.7	13111	100
2025-5-25 10:6:24.837	WT901BLE68(801231B9234C)	-0.266	1.228	0.138	-34.119	33.508	-101.501	93.66	3.44	-73.55	-9.604	-53.018	16.660	-0.56088	-0.63684	0.35770	0.38956	23.7	13111	100
2025-5-25 10:6:24.882	WT901BLE68(801231B9234C)	-0.322	1.219	0.115	-33.569	39.246	-111.389	92.99	5.70	-73.53	-9.604	-53.018	16.660	-0.56088	-0.63684	0.35770	0.38956	23.7	13111	100
2025-5-25 10:6:24.882	WT901BLE68(801231B9234C)	-0.321	1.252	0.107	-35.461	24.597	-118.347	92.33	8.11	-73.68	-9.604	-53.018	16.660	-0.56088	-0.63684	0.35770	0.38956	23.7	13111	100
2025-5-25 10:6:24.928	WT901BLE68(801231B9234C)	-0.313	1.266	0.102	-31.616	-0.488	-121.521	91.68	10.60	-74.34	-9.604	-53.018	16.660	-0.56088	-0.63684	0.35770	0.38956	23.7	13111	100
2025-5-25 10:6:24.929	WT901BLE68(801231B9234C)	-0.287	1.327	0.096	-30.457	-31.921	-121.033	90.93	13.13	-75.68	-9.604	-53.018	16.660	-0.56088	-0.63684	0.35770	0.38956	23.7	13111	100
2025-5-25 10:6:24.974	WT901BLE68(801231B9234C)	-0.235	1.281	0.085	-34.180	-63.049	-119.446	89.96	15.60	-77.76	-9.604	-53.018	16.660	-0.56088	-0.63684	0.35770	0.38956	23.7	13111	100
2025-5-25 10:6:24.974	WT901BLE68(801231B9234C)	-0.157	1.141	0.093	-36.194	-79.895	-123.047	88.73	18.05	-80.46	-9.604	-53.018	16.660	-0.46338	-0.59830	0.36487	0.54233	23.7	13111	100
2025-5-25 10:6:24.996	WT901BLE68(801231B9234C)	-0.108	1.031	0.088	-37.537	-83.069	-132.568	87.32	20.58	-83.50	-9.604	-53.018	16.660	-0.46338	-0.59830	0.36487	0.54233	23.7	13111	100
2025-5-25 10:6:24.997	WT901BLE68(801231B9234C)	-0.087	0.971	0.079	-40.833	-77.759	-140.503	85.72	23.23	-86.72	-9.604	-53.018	16.660	-0.46338	-0.59830	0.36487	0.54233	23.7	13111	100
2025-5-25 10:6:25.39	WT901BLE68(801231B9234C)	-0.073	0.920	0.074	-45.715	-63.965	-149.231	83.94	26.01	-89.91	-9.604	-53.018	16.660	-0.46338	-0.59830	0.36487	0.54233	23.7	13111	100
2025-5-25 10:6:25.40	WT901BLE68(801231B9234C)	-0.078	0.886	0.065	-49.072	-46.692	-153.564	82.03	28.89	-92.94	-9.604	-53.018	16.660	-0.46338	-0.59830	0.36487	0.54233	23.7	13111	100
2025-5-25 10:6:25.84	WT901BLE68(801231B9234C)	-0.094	0.877	0.055	-50.720	-29.297	-153.870	80.67	31.87	-92.76	-9.604	-53.018	16.660	-0.46338	-0.59830	0.36487	0.54233	23.7	13111	100
2025-5-25 10:6:25.85	WT901BLE68(801231B9234C)	-0.116	0.877	0.053	-51.331	-17.395	-151.062	79.41	34.82	-92.33	-9.604	-53.018	16.660	-0.46338	-0.59830	0.36487	0.54233	23.7	13111	100
2025-5-25 10:6:25.132	WT901BLE68(801231B9234C)	-0.147	0.878	0.058	-51.147	-13.550	-146.790	78.21	37.68	-91.81	-9.604	-53.018	16.660	-0.46338	-0.59830	0.36487	0.54233	23.7	13111	100
2025-5-25 10:6:25.132	WT901BLE68(801231B9234C)	-0.085	0.884	0.055	-51.208	-15.808	-141.479	76.98	40.41	-91.36	-9.604	-53.018	16.660	-0.46338	-0.59830	0.36487	0.54233	23.7	13111	100
2025-5-25 10:6:25.174	WT901BLE68(801231B9234C)	-0.104	0.841	0.044	-47.852	-16.235	-128.418	75.68	42.92	-91.04	-9.604	-53.018	16.660	-0.46338	-0.59830	0.36487	0.54233	23.7	13111	100
2025-5-25 10:6:25.175	WT901BLE68(801231B9234C)	-0.097	0.792	0.048	-46.692	-11.963	-121.094	74.50	45.21	-90.63	21.070	-21.070	-19.796	-0.46338	-0.59830	0.36487	0.54233	23.7	13111	100
2025-5-25 10:6:25.199	WT901BLE68(801231B9234C)	-0.088	0.772	0.045	-42.969	-6.042	-106.018	73.50	47.26	-90.08	21.070	-21.070	-19.796	-0.46338	-0.59830	0.36487	0.54233	23.7	13111	100
2025-5-25 10:6:25.199	WT901BLE68(801231B9234C)	-0.088	0.801	0.041	-39.368	2.319	-87.402	72.80	48.99	-89.25	21.070	-21.070	-19.796	-0.46338	-0.59830	0.36487	0.54233	23.7	13111	100
2025-5-25 10:6:25.242	WT901BLE68(801231B9234C)	-0.089	0.838	0.034	-35.583	12.756	-63.110	72.52	50.33	-87.96	21.070	-21.070	-19.796	-0.46338	-0.59830	0.36487	0.54233	23.7	13111	100
2025-5-25 10:6:25.243	WT901BLE68(801231B9234C)	-0.076	0.883	0.028	-30.579	23.865	-34.729	72.79	51.20	-86.12	21.070	-21.070	-19.796	-0.46338	-0.59830	0.36487	0.54233	23.7	13111	100
2025-5-25 10:6:25.286	WT901BLE68(801231B9234C)	-0.120	0.888	0.031	-23.254	37.842	1.648	73.75	51.45	-83.58	21.070	-21.070	-19.796	-0.46338	-0.59830	0.36487	0.54233	23.7	13111	100
2025-5-25 10:6:25.287	WT901BLE68(801231B9234C)	-0.131	0.899	0.028	-14.771	50.293	39.673	75.41	51.03	-80.36	21.070	-21.070	-19.796	-0.46338	-0.59830	0.36487	0.54233	23.7	13111	100
2025-5-25 10:6:25.333	WT901BLE68(801231B9234C)	-0.149	0.984	0.014	-3.967	63.538	84.290	77.67	49.76	-76.59	21.070	-21.070	-19.796	-0.46338	-0.59830	0.36487	0.54233	23.7	13111	100
2025-5-25 10:6:25.333	WT901BLE68(801231B9234C)	-0.166	1.001	0.006	8.667	79.468	127.319	80.45	47.60	-72.38	21.070	-21.070	-19.796	-0.46338	-0.59830	0.36487	0.54233	23.7	13111	100
2025-5-25 10:6:25.356	WT901BLE68(801231B9234C)	-0.189	0.992	0.002	25.024	90.454	166.687	83.51	44.56	-68.04	21.070	-21.070	-19.796	-0.46338	-0.59830	0.36487	0.54233	23.7	13111	100
2025-5-25 10:6:25.357	WT901BLE68(801231B9234C)	-0.245	0.970	0.029	43.701	98.511	199.402	86.64	40.70	-63.87	21.070	-21.070	-19.796	-0.45746	-0.68378	0.13617	0.55185	23.7	13111	100
2025-5-25 10:6:25.401	WT901BLE68(801231B9234C)	-0.329	1.013	0.118	60.852	90.881	224.915	89.61	36.16	-60.24	21.070	-21.070	-19.796	-0.45746	-0.68378	0.13617	0.55185	23.7	13111	100
2025-5-25 10:6:25.401	WT901BLE68(801231B9234C)	-0.457	1.165	0.227	70.190	54.688	242.920	91.94	31.16	-57.73	21.070	-21.070	-19.796	-0.45746	-0.68378	0.13617	0.55185	23.7	13111	100
2025-5-25 10:6:25.444	WT901BLE68(801231B9234C)	-0.518	1.356	0.336	70.129	-16.785	242.493	93.44	26.06	-56.82	21.070	-21.070	-19.796	-0.45746	-0.68378	0.13617	0.55185	23.7	13111	100
2025-5-25 10:6:25.445	WT901BLE68(801231B9234C)	-0.473	1.430	0.351	61.584	-103.577	226.563	93.96	21.34	-57.90	21.070	-21.070	-19.796	-0.45746	-0.68378	0.13617	0.55185	23.7	13111	100
2025-5-25 10:6:25.489	WT901BLE68(801231B9234C)	-0.377	1.449	0.216	63.782	-175.110	204.041	93.94	17.22	-60.67	21.070	-21.070	-19.796	-0.45746	-0.68378	0.13617	0.55185	23.7	13111	100
2025-5-25 10:6:25.489	WT901BLE68(801231B9234C)	-0.233	1.482	0.059	66.650	-198.181	187.561	94.07	13.64	-64.20	21.070	-21.070	-19.796	-0.45746	-0.68378	0.13617	0.55185	23.7	13111	100
2025-5-25 10:6:25.536	WT901BLE68(801231B9234C)	-0.014	1.209	0.099	57.312	-188.599	156.738	94.27	10.49	-67.80	21.070	-21.070	-19.796	-0.45746	-0.68378	0.13617	0.55185	23.7	13111	100
2025-5-25 10:6:25.537	WT901BLE68(801231B9234C)	0.136	1.112	0.201	52.979	-146.362	105.591	94.69	8.29	-70.73	21.070	-21.070	-19.796	-0.45746	-0.68378	0.13617	0.55185	23.7	13111	100
2025-5-25 10:6:25.559	WT901BLE68(801231B9234C)	0.213	0.974	0.259	41.809	-77.026	63.354	95.16	6.92	-72.39	21.070	-21.070	-19.796	-0.45746	-0.68378	0.13617	0.55185	23.7	13111	100
2025-5-25 10:6:25.559	WT901BLE68(801231B9234C)	0.125	0.853	0.249	36.377	5.005	33.813	95.69	6.06	-72.49	-5.880	-28.126	-20.776	-0.45746	-0.68378	0.13617	0.55185	23.7	13111	100
2025-5-25 10:6:25.602	WT901BLE68(801231B9234C)	0.017	0.813	0.217	27.771	87.463	15.808	96.23	5.42	-70.91	-5.880	-28.126	-20.776	-0.45746	-0.68378	0.13617	0.55185	23.7	13111	100
2025-5-25 10:6:25.602	WT901BLE68(801231B9234C)	-0.094	0.782	0.197	22.156	155.029	6.897	96.72	4.82	-67.91	-5.880	-28.126	-20.776	-0.45746	-0.68378	0.13617	0.55185	23.7	13111	100
2025-5-25 10:6:25.647	WT901BLE68(801231B9234C)	-0.250	0.774	0.169	17.273	194.763	4.578	97.13	4.19	-63.96	-5.880	-28.126	-20.776	-0.45746	-0.68378	0.13617	0.55185	23.7	13111	100
2025-5-25 10:6:25.647	WT901BLE68(801231B9234C)	-0.395	0.797	0.154	11.536	210.083	7.874	97.42	3.46	-59.59	-5.880	-28.126	-20.776	-0.45746	-0.68378	0.13617	0.55185	23.7	13111	100
2025-5-25 10:6:25.692	WT901BLE68(801231B9234C)	-0.490	0.794	0.164	6.531	196.533	17.883	97.53	2.64	-55.37	-5.880	-28.126	-20.776	-0.45746	-0.68378	0.13617	0.55185	23.7	13111	100
2025-5-25 10:6:25.692	WT901BLE68(801231B9234C)	-0.522	0.805	0.190	2.930	156.433	33.813	97.47	1.69	-51.85	-5.880	-28.126	-20.776	-0.45746	-0.68378	0.13617	0.55185	23.7	13111	100
2025-5-25 10:6:25.739	WT901BLE68(801231B9234C)	-0.510	0.817	0.216	3.296	108.398	66.711	97.28	0.53	-49.37	-5.880	-28.126	-20.776	-0.45746	-0.68378	0.13617	0.55185	23.7	13111	100
2025-5-25 10:6:25.739	WT901BLE68(801231B9234C)	-0.452	0.812	0.225	-1.526	56.274	72.693	96.97	-0.76	-47.99	-5.880	-28.126	-20.776	-0.45746	-0.68378	0.13617	0.55185	23.7	13111	100
2025-5-25 10:6:25.761	WT901BLE68(801231B9234C)	-0.427	0.857	0.238	0.916	9.094	84.106	96.72	-2.16	-47.64	-5.880	-28.126	-20.776	-0.45746	-0.68378	0.13617	0.55185	23.7	13111	100
2025-5-25 10:6:25.761	WT901BLE68(801231B9234C)	-0.441	0.949	0.262	2.563	-22.034	85.754	96.54	-3.55	-48.00	-5.880	-28.126	-20.776	-0.61652	-0.67136	0.33182	0.24286	23.7	13111	100
2025-5-25 10:6:25.804	WT901BLE68(801231B9234C)	-0.495	1.047	0.245	4.089	-43.884	79.163	96.44	-4.80	-48.86	-5.880	-28.126	-20.776	-0.61652	-0.67136	0.33182	0.24286	23.7	13111	100
2025-5-25 10:6:25.804	WT901BLE68(801231B9234C)	-0.536	1.200	0.239	3.174	-58.655	59.143	96.38	-5.68	-49.99	-5.880	-28.126	-20.776	-0.61652	-0.67136	0.33182	0.24286	23.7	13111	100
2025-5-25 10:6:25.850	WT901BLE68(801231B9234C)	-0.485	1.317	0.215	-2.747	-71.716	24.536	96.28	-5.95	-51.28	-5.880	-28.126	-20.776	-0.61652	-0.67136	0.33182	0.24286	23.7	13111	100
2025-5-25 10:6:25.850	WT901BLE68(801231B9234C)	-0.281	1.467	0.160	-8.240	-83.923	-18.799	96.09	-5.43	-52.67	-5.880	-28.126	-20.776	-0.61652	-0.67136	0.33182	0.24286	23.7	13111	100
2025-5-25 10:6:25.894	WT901BLE68(801231B9234C)	-0.136	1.566	0.119	-11.475	-89.539	-53.955	95.79	-4.14	-54.10	-5.880	-28.126	-20.776	-0.61652	-0.67136	0.33182	0.24286	23.7	13111	100
2025-5-25 10:6:25.894	WT901BLE68(801231B9234C)	-0.089	1.530	0.109	-20.203	-82.275	-90.576	95.31	-2.19	-55.35	-5.880	-28.126	-20.776	-0.61652	-0.67136	0.33182	0.24286	23.7	13111	100
2025-5-25 10:6:25.942	WT901BLE68(801231B9234C)	-0.161	1.378	0.115	-27.283	-49.072	-117.310	94.63	0.25	-56.03	-5.880	-28.126	-20.776	-0.61652	-0.67136	0.33182	0.24286	23.7	13111	100
2025-5-25 10:6:25.942	WT901BLE68(801231B9234C)	-0.210	1.249	0.120	-29.724	-24.353	-134.888	93.87	2.97	-56.06	-5.880	-28.126	-20.776	-0.61652	-0.67136	0.33182	0.24286	23.7	13111	100
2025-5-25 10:6:25.964	WT901BLE68(801231B9234C)	-0.199	1.235	0.115	-30.884	-7.935	-145.081	93.10	5.86	-55.72	-5.880	-28.126	-20.776	-0.61652	-0.67136	0.33182	0.24286	23.7	13111	100
2025-5-25 10:6:25.964	WT901BLE68(801231B9234C)	-0.288	1.169	0.112	-28.259	1.526	-149.353	92.41	8.82	-55.16	-6.272	-23.716	-35.084	-0.61652	-0.67136	0.33182	0.24286	23.7	13111	100
2025-5-25 10:6:26.9	WT901BLE68(801231B9234C)	-0.346	1.146	0.130	-23.010	-8.972	-148.926	91.81	11.77	-54.66	-6.272	-23.716	-35.084	-0.61652	-0.67136	0.33182	0.24286	23.7	13111	100
2025-5-25 10:6:26.9	WT901BLE68(801231B9234C)	-0.316	1.143	0.119	-22.522	-52.551	-143.921	91.10	14.69	-54.87	-6.272	-23.716	-35.084	-0.61652	-0.67136	0.33182	0.24286	23.7	13111	100
2025-5-25 10:6:26.52	WT901BLE68(801231B9234C)	-0.313	1.131	0.098	-21.484	-90.698	-132.629	90.19	17.38	-55.99	-6.272	-23.716	-35.084	-0.61652	-0.67136	0.33182	0.24286	23.7	13111	100
2025-5-25 10:6:26.52	WT901BLE68(801231B9234C)	-0.236	1.062	0.074	-25.696	-131.836	-126.465	88.88	19.90	-58.03	-6.272	-23.716	-35.084	-0.61652	-0.67136	0.33182	0.24286	23.7	13111	100
2025-5-25 10:6:26.97	WT901BLE68(801231B9234C)	-0.151	0.984	0.036	-30.334	-156.921	-118.774	87.16	22.15	-60.87	-6.272	-23.716	-35.084	-0.61652	-0.67136	0.33182	0.24286	23.7	13111	100
2025-5-25 10:6:26.97	WT901BLE68(801231B9234C)	-0.114	0.938	0.022	-34.973	-164.917	-113.953	85.10	24.16	-64.14	-6.272	-23.716	-35.084	-0.61652	-0.67136	0.33182	0.24286	23.7	13111	100
2025-5-25 10:6:26.122	WT901BLE68(801231B9234C)	-0.069	0.906	0.036	-42.236	-158.875	-113.708	82.80	25.97	-67.51	-6.272	-23.716	-35.084	-0.61652	-0.67136	0.33182	0.24286	23.7	13111	100
2025-5-25 10:6:26.123	WT901BLE68(801231B9234C)	-0.028	0.879	0.047	-49.988	-141.541	-112.549	80.35	27.65	-70.75	-6.272	-23.716	-35.084	-0.61652	-0.67136	0.33182	0.24286	23.7	13111	100
2025-5-25 10:6:26.164	WT901BLE68(801231B9234C)	-0.011	0.850	0.040	-57.373	-111.267	-110.535	77.90	29.22	-73.54	-6.272	-23.716	-35.084	-0.61652	-0.67136	0.33182	0.24286	23.7	13111	100
2025-5-25 10:6:26.164	WT901BLE68(801231B9234C)	0.002	0.830	0.025	-61.523	-70.313	-105.652	75.67	30.73	-75.60	-6.272	-23.716	-35.084	-0.49976	-0.59311	0.19727	0.59952	23.7	13111	100
2025-5-25 10:6:26.209	WT901BLE68(801231B9234C)	-0.037	0.842	0.031	-63.110	-29.663	-98.083	73.83	32.23	-76.78	-6.272	-23.716	-35.084	-0.49976	-0.59311	0.19727	0.59952	23.7	13111	100
