time	DeviceName	AccX(g)	AccY(g)	AccZ(g)	AsX(°/s)	AsY(°/s)	AsZ(°/s)	AngleX(°)	AngleY(°)	AngleZ(°)	HX(uT)	HY(uT)	HZ(uT)	Q0()	Q1()	Q2()	Q3()	Temperature(°C)	Version()	Battery level(%)
2025-5-25 9:59:26.121	WT901BLE68(801231B9234C)	-0.105	1.036	-0.012	-97.534	21.729	-216.003	83.84	33.11	19.73	-0.392	-43.512	-5.292	0.69940	0.68073	0.21756	-0.00052	23.2	13111	100
2025-5-25 9:59:26.121	WT901BLE68(801231B9234C)	-0.082	1.017	0.010	-91.980	14.404	-205.261	82.04	36.99	19.92	-0.392	-43.512	-5.292	0.69940	0.68073	0.21756	-0.00052	23.2	13111	100
2025-5-25 9:59:26.167	WT901BLE68(801231B9234C)	-0.004	1.017	0.018	-88.196	1.953	-192.078	80.12	40.57	19.76	-0.392	-43.512	-5.292	0.69940	0.68073	0.21756	-0.00052	23.2	13111	100
2025-5-25 9:59:26.168	WT901BLE68(801231B9234C)	0.109	1.003	-0.012	-82.153	-2.258	-169.128	78.11	43.69	19.32	-0.392	-43.512	-5.292	0.69940	0.68073	0.21756	-0.00052	23.2	13111	100
2025-5-25 9:59:26.190	WT901BLE68(801231B9234C)	0.135	0.915	-0.035	-71.350	3.235	-137.390	76.33	46.21	18.97	-0.392	-43.512	-5.292	0.69940	0.68073	0.21756	-0.00052	23.2	13111	100
2025-5-25 9:59:26.191	WT901BLE68(801231B9234C)	0.115	0.832	-0.032	-59.814	10.193	-102.783	74.98	48.05	18.93	30.576	-4.410	-24.500	0.69940	0.68073	0.21756	-0.00052	23.2	13111	100
2025-5-25 9:59:26.235	WT901BLE68(801231B9234C)	-0.005	0.726	0.023	-36.804	34.607	-61.462	74.63	49.17	19.69	30.576	-4.410	-24.500	0.69940	0.68073	0.21756	-0.00052	23.2	13111	100
2025-5-25 9:59:26.235	WT901BLE68(801231B9234C)	-0.078	0.855	0.076	-13.428	50.781	-12.451	75.50	49.52	21.41	30.576	-4.410	-24.500	0.69940	0.68073	0.21756	-0.00052	23.2	13111	100
2025-5-25 9:59:26.278	WT901BLE68(801231B9234C)	-0.089	0.934	0.075	3.296	57.983	42.908	77.20	48.84	23.76	30.576	-4.410	-24.500	0.69940	0.68073	0.21756	-0.00052	23.2	13111	100
2025-5-25 9:59:26.278	WT901BLE68(801231B9234C)	-0.084	0.853	0.051	22.705	60.242	95.154	79.44	47.09	26.44	30.576	-4.410	-24.500	0.69940	0.68073	0.21756	-0.00052	23.2	13111	100
2025-5-25 9:59:26.324	WT901BLE68(801231B9234C)	-0.128	0.773	0.033	46.387	65.186	144.165	82.09	44.31	29.20	30.576	-4.410	-24.500	0.69940	0.68073	0.21756	-0.00052	23.2	13111	100
2025-5-25 9:59:26.324	WT901BLE68(801231B9234C)	-0.180	0.792	0.077	71.472	67.810	186.462	85.04	40.61	31.87	30.576	-4.410	-24.500	0.69940	0.68073	0.21756	-0.00052	23.2	13111	100
2025-5-25 9:59:26.370	WT901BLE68(801231B9234C)	-0.231	0.921	0.152	90.942	57.556	223.206	87.97	36.10	34.07	30.576	-4.410	-24.500	0.69940	0.68073	0.21756	-0.00052	23.2	13111	100
2025-5-25 9:59:26.370	WT901BLE68(801231B9234C)	-0.266	1.101	0.214	102.234	28.137	249.023	90.51	30.98	35.36	30.576	-4.410	-24.500	0.69940	0.68073	0.21756	-0.00052	23.2	13111	100
2025-5-25 9:59:26.393	WT901BLE68(801231B9234C)	-0.254	1.311	0.229	106.628	-13.184	267.578	92.50	25.49	35.49	30.576	-4.410	-24.500	0.69940	0.68073	0.21756	-0.00052	23.2	13111	100
2025-5-25 9:59:26.394	WT901BLE68(801231B9234C)	-0.229	1.443	0.189	108.093	-47.729	279.297	94.12	19.87	34.63	30.576	-4.410	-24.500	0.66748	0.67230	0.30621	0.09290	23.2	13111	100
2025-5-25 9:59:26.435	WT901BLE68(801231B9234C)	-0.208	1.461	0.118	111.816	-63.538	280.823	95.76	14.27	33.21	30.576	-4.410	-24.500	0.66748	0.67230	0.30621	0.09290	23.2	13111	100
2025-5-25 9:59:26.436	WT901BLE68(801231B9234C)	-0.188	1.449	0.067	114.136	-67.017	286.804	97.50	8.73	31.48	30.576	-4.410	-24.500	0.66748	0.67230	0.30621	0.09290	23.2	13111	100
2025-5-25 9:59:26.481	WT901BLE68(801231B9234C)	-0.179	1.398	0.088	112.549	-62.073	291.382	99.39	3.20	29.64	30.576	-4.410	-24.500	0.66748	0.67230	0.30621	0.09290	23.2	13111	100
2025-5-25 9:59:26.482	WT901BLE68(801231B9234C)	-0.150	1.318	0.146	107.910	-47.546	286.316	101.37	-2.22	27.84	30.576	-4.410	-24.500	0.66748	0.67230	0.30621	0.09290	23.2	13111	100
2025-5-25 9:59:26.526	WT901BLE68(801231B9234C)	-0.178	1.287	0.153	106.689	-19.104	265.137	103.43	-7.31	26.37	30.576	-4.410	-24.500	0.66748	0.67230	0.30621	0.09290	23.2	13111	100
2025-5-25 9:59:26.526	WT901BLE68(801231B9234C)	-0.249	1.281	0.144	100.952	21.240	239.929	105.40	-12.01	25.52	30.576	-4.410	-24.500	0.66748	0.67230	0.30621	0.09290	23.2	13111	100
2025-5-25 9:59:26.550	WT901BLE68(801231B9234C)	-0.354	1.248	0.158	94.849	59.998	211.121	107.11	-16.33	25.43	30.576	-4.410	-24.500	0.66748	0.67230	0.30621	0.09290	23.2	13111	100
2025-5-25 9:59:26.550	WT901BLE68(801231B9234C)	-0.455	1.153	0.200	80.261	81.970	177.673	108.45	-20.23	25.93	30.576	-4.410	-24.500	0.66748	0.67230	0.30621	0.09290	23.2	13111	100
2025-5-25 9:59:26.596	WT901BLE68(801231B9234C)	-0.447	1.258	0.271	76.172	87.280	148.743	109.41	-23.48	26.72	30.576	-4.410	-24.500	0.66748	0.67230	0.30621	0.09290	23.2	13111	100
2025-5-25 9:59:26.597	WT901BLE68(801231B9234C)	-0.407	1.221	0.309	70.557	75.317	114.929	110.28	-25.94	27.28	7.840	-39.984	-10.486	0.66748	0.67230	0.30621	0.09290	23.2	13111	100
2025-5-25 9:59:26.639	WT901BLE68(801231B9234C)	-0.430	1.178	0.332	63.843	65.613	85.449	111.21	-27.65	27.34	7.840	-39.984	-10.486	0.66748	0.67230	0.30621	0.09290	23.2	13111	100
2025-5-25 9:59:26.639	WT901BLE68(801231B9234C)	-0.467	1.221	0.380	51.636	62.439	69.031	112.14	-28.87	27.02	7.840	-39.984	-10.486	0.66748	0.67230	0.30621	0.09290	23.2	13111	100
2025-5-25 9:59:26.683	WT901BLE68(801231B9234C)	-0.513	1.129	0.412	37.903	60.913	61.707	112.92	-29.94	26.50	7.840	-39.984	-10.486	0.66748	0.67230	0.30621	0.09290	23.2	13111	100
2025-5-25 9:59:26.684	WT901BLE68(801231B9234C)	-0.562	1.030	0.386	29.602	57.495	50.171	113.55	-30.80	25.94	7.840	-39.984	-10.486	0.66748	0.67230	0.30621	0.09290	23.2	13111	100
2025-5-25 9:59:26.727	WT901BLE68(801231B9234C)	-0.588	1.023	0.371	22.217	49.805	37.231	114.08	-31.38	25.33	7.840	-39.984	-10.486	0.66748	0.67230	0.30621	0.09290	23.2	13111	100
2025-5-25 9:59:26.727	WT901BLE68(801231B9234C)	-0.599	1.024	0.371	14.526	37.720	23.682	114.53	-31.62	24.63	7.840	-39.984	-10.486	0.66748	0.67230	0.30621	0.09290	23.2	13111	100
2025-5-25 9:59:26.753	WT901BLE68(801231B9234C)	-0.620	1.022	0.387	5.066	16.785	2.075	114.91	-31.38	23.72	7.840	-39.984	-10.486	0.66748	0.67230	0.30621	0.09290	23.2	13111	100
2025-5-25 9:59:26.754	WT901BLE68(801231B9234C)	-0.608	1.207	0.404	-0.305	-5.981	-26.001	115.28	-30.44	22.62	7.840	-39.984	-10.486	0.66748	0.67230	0.30621	0.09290	23.2	13111	100
2025-5-25 9:59:26.823	WT901BLE68(801231B9234C)	-0.591	1.354	0.358	-12.817	-23.987	-51.086	115.52	-28.87	21.38	7.840	-39.984	-10.486	0.66748	0.67230	0.30621	0.09290	23.2	13111	100
2025-5-25 9:59:26.823	WT901BLE68(801231B9234C)	-0.512	1.468	0.315	-23.132	-41.504	-81.360	115.52	-26.64	20.10	7.840	-39.984	-10.486	0.47726	0.83453	0.02274	0.27414	23.2	13111	100
2025-5-25 9:59:26.844	WT901BLE68(801231B9234C)	-0.426	1.517	0.241	-35.889	-58.228	-106.506	115.28	-23.78	18.77	7.840	-39.984	-10.486	0.47726	0.83453	0.02274	0.27414	23.2	13111	100
2025-5-25 9:59:26.844	WT901BLE68(801231B9234C)	-0.380	1.484	0.200	-48.828	-72.327	-133.545	114.73	-20.35	17.40	7.840	-39.984	-10.486	0.47726	0.83453	0.02274	0.27414	23.2	13111	100
2025-5-25 9:59:26.886	WT901BLE68(801231B9234C)	-0.351	1.477	0.165	-59.265	-86.609	-156.006	113.91	-16.39	15.98	7.840	-39.984	-10.486	0.47726	0.83453	0.02274	0.27414	23.2	13111	100
2025-5-25 9:59:26.886	WT901BLE68(801231B9234C)	-0.327	1.691	0.135	-73.608	-104.431	-158.936	112.82	-12.14	14.32	7.840	-39.984	-10.486	0.47726	0.83453	0.02274	0.27414	23.2	13111	100
2025-5-25 9:59:26.930	WT901BLE68(801231B9234C)	-0.297	1.563	0.096	-84.290	-122.009	-170.532	111.46	-7.66	12.36	7.840	-39.984	-10.486	0.47726	0.83453	0.02274	0.27414	23.2	13111	100
2025-5-25 9:59:26.930	WT901BLE68(801231B9234C)	-0.236	1.675	0.065	-94.849	-133.667	-169.983	109.75	-3.11	10.15	7.840	-39.984	-10.486	0.47726	0.83453	0.02274	0.27414	23.2	13111	100
2025-5-25 9:59:26.954	WT901BLE68(801231B9234C)	-0.158	1.637	0.042	-105.469	-133.545	-169.861	107.57	1.27	8.17	7.840	-39.984	-10.486	0.47726	0.83453	0.02274	0.27414	23.2	13111	100
2025-5-25 9:59:26.954	WT901BLE68(801231B9234C)	-0.090	1.511	0.026	-114.136	-121.216	-174.133	105.01	5.42	6.80	7.840	-39.984	-10.486	0.47726	0.83453	0.02274	0.27414	23.2	13111	100
2025-5-25 9:59:26.998	WT901BLE68(801231B9234C)	-0.055	1.410	0.022	-120.972	-96.130	-182.861	102.29	9.43	5.91	7.840	-39.984	-10.486	0.47726	0.83453	0.02274	0.27414	23.2	13111	100
2025-5-25 9:59:26.998	WT901BLE68(801231B9234C)	-0.056	1.299	0.008	-121.582	-59.998	-196.838	99.58	13.40	5.60	15.680	-35.476	-13.622	0.47726	0.83453	0.02274	0.27414	23.2	13111	100
2025-5-25 9:59:27.43	WT901BLE68(801231B9234C)	-0.071	1.206	-0.020	-120.850	-32.532	-209.778	96.98	17.48	5.79	15.680	-35.476	-13.622	0.47726	0.83453	0.02274	0.27414	23.2	13111	100
2025-5-25 9:59:27.43	WT901BLE68(801231B9234C)	-0.117	1.150	-0.055	-117.981	-9.399	-217.468	94.58	21.64	6.34	15.680	-35.476	-13.622	0.47726	0.83453	0.02274	0.27414	23.2	13111	100
2025-5-25 9:59:27.89	WT901BLE68(801231B9234C)	-0.144	1.115	-0.074	-114.929	4.272	-218.567	92.40	25.80	7.11	15.680	-35.476	-13.622	0.47726	0.83453	0.02274	0.27414	23.2	13111	100
2025-5-25 9:59:27.89	WT901BLE68(801231B9234C)	-0.161	1.063	-0.085	-108.582	7.629	-213.989	90.39	29.87	7.90	15.680	-35.476	-13.622	0.47726	0.83453	0.02274	0.27414	23.2	13111	100
2025-5-25 9:59:27.134	WT901BLE68(801231B9234C)	-0.173	1.046	-0.074	-104.614	-1.465	-203.857	88.36	33.77	8.40	15.680	-35.476	-13.622	0.47726	0.83453	0.02274	0.27414	23.2	13111	100
2025-5-25 9:59:27.134	WT901BLE68(801231B9234C)	-0.144	1.047	-0.062	-102.539	-10.620	-193.420	86.24	37.42	8.55	15.680	-35.476	-13.622	0.47726	0.83453	0.02274	0.27414	23.2	13111	100
2025-5-25 9:59:27.159	WT901BLE68(801231B9234C)	-0.106	1.023	-0.061	-101.624	-16.724	-181.152	83.92	40.81	8.33	15.680	-35.476	-13.622	0.47726	0.83453	0.02274	0.27414	23.2	13111	100
2025-5-25 9:59:27.159	WT901BLE68(801231B9234C)	-0.077	1.012	-0.061	-97.412	-10.925	-168.213	81.62	43.87	8.02	15.680	-35.476	-13.622	0.47726	0.83453	0.02274	0.27414	23.2	13111	100
2025-5-25 9:59:27.201	WT901BLE68(801231B9234C)	-0.038	0.962	-0.061	-93.567	2.686	-156.677	79.53	46.69	7.90	15.680	-35.476	-13.622	0.47726	0.83453	0.02274	0.27414	23.2	13111	100
2025-5-25 9:59:27.202	WT901BLE68(801231B9234C)	-0.023	0.929	-0.055	-85.266	23.315	-142.700	77.93	49.26	8.25	15.680	-35.476	-13.622	0.72305	0.53976	0.37531	-0.21188	23.2	13111	100
2025-5-25 9:59:27.247	WT901BLE68(801231B9234C)	-0.046	0.892	-0.020	-76.416	41.260	-130.127	76.99	51.62	9.22	15.680	-35.476	-13.622	0.72305	0.53976	0.37531	-0.21188	23.2	13111	100
2025-5-25 9:59:27.247	WT901BLE68(801231B9234C)	-0.073	0.877	-0.003	-61.035	54.688	-112.366	76.83	53.72	10.79	15.680	-35.476	-13.622	0.72305	0.53976	0.37531	-0.21188	23.2	13111	100
2025-5-25 9:59:27.323	WT901BLE68(801231B9234C)	-0.102	0.823	0.026	-46.204	55.969	-86.060	77.31	55.37	12.78	15.680	-35.476	-13.622	0.72305	0.53976	0.37531	-0.21188	23.2	13111	100
2025-5-25 9:59:27.323	WT901BLE68(801231B9234C)	-0.106	0.840	0.038	-30.640	48.584	-50.110	78.21	56.35	14.90	15.680	-35.476	-13.622	0.72305	0.53976	0.37531	-0.21188	23.2	13111	100
2025-5-25 9:59:27.324	WT901BLE68(801231B9234C)	-0.125	0.884	0.037	-10.864	47.974	-2.563	79.66	56.41	17.23	15.680	-35.476	-13.622	0.72305	0.53976	0.37531	-0.21188	23.2	13111	100
2025-5-25 9:59:27.324	WT901BLE68(801231B9234C)	-0.134	0.824	0.061	12.451	54.565	48.645	81.74	55.50	19.87	15.680	-35.476	-13.622	0.72305	0.53976	0.37531	-0.21188	23.2	13111	100
2025-5-25 9:59:27.358	WT901BLE68(801231B9234C)	-0.227	0.677	0.105	30.945	69.336	99.548	84.55	53.53	22.97	15.680	-35.476	-13.622	0.72305	0.53976	0.37531	-0.21188	23.2	13111	100
2025-5-25 9:59:27.359	WT901BLE68(801231B9234C)	-0.312	0.657	0.114	54.504	88.867	143.677	87.98	50.57	26.39	15.680	-35.476	-13.622	0.72305	0.53976	0.37531	-0.21188	23.2	13111	100
2025-5-25 9:59:27.404	WT901BLE68(801231B9234C)	-0.419	0.778	0.150	69.092	105.591	179.260	91.57	46.79	29.79	15.680	-35.476	-13.622	0.72305	0.53976	0.37531	-0.21188	23.2	13111	100
2025-5-25 9:59:27.404	WT901BLE68(801231B9234C)	-0.544	0.923	0.258	78.613	120.361	201.355	95.05	42.36	33.02	35.770	0.588	-17.640	0.72305	0.53976	0.37531	-0.21188	23.2	13111	100
2025-5-25 9:59:27.450	WT901BLE68(801231B9234C)	-0.513	1.152	0.285	75.867	118.958	205.688	98.07	37.68	35.81	35.770	0.588	-17.640	0.72305	0.53976	0.37531	-0.21188	23.2	13111	100
2025-5-25 9:59:27.450	WT901BLE68(801231B9234C)	-0.354	1.325	0.153	63.721	109.009	211.853	100.32	32.93	37.96	35.770	0.588	-17.640	0.72305	0.53976	0.37531	-0.21188	23.2	13111	100
2025-5-25 9:59:27.494	WT901BLE68(801231B9234C)	-0.448	1.470	-0.010	50.903	119.629	213.623	102.00	28.08	39.80	35.770	0.588	-17.640	0.72305	0.53976	0.37531	-0.21188	23.2	13111	100
2025-5-25 9:59:27.494	WT901BLE68(801231B9234C)	-0.811	1.470	-0.094	37.903	164.917	191.589	103.56	23.36	42.28	35.770	0.588	-17.640	0.72305	0.53976	0.37531	-0.21188	23.2	13111	100
2025-5-25 9:59:27.524	WT901BLE68(801231B9234C)	-0.825	1.326	-0.094	18.616	172.852	175.476	104.83	18.90	45.24	35.770	0.588	-17.640	0.72305	0.53976	0.37531	-0.21188	23.2	13111	100
2025-5-25 9:59:27.524	WT901BLE68(801231B9234C)	-0.773	1.119	-0.086	13.428	157.715	182.922	105.58	14.53	47.82	35.770	0.588	-17.640	0.72305	0.53976	0.37531	-0.21188	23.2	13111	100
2025-5-25 9:59:27.561	WT901BLE68(801231B9234C)	-0.759	0.943	-0.033	11.353	127.197	177.307	105.96	10.40	49.83	35.770	0.588	-17.640	0.72305	0.53976	0.37531	-0.21188	23.2	13111	100
2025-5-25 9:59:27.561	WT901BLE68(801231B9234C)	-0.688	0.869	0.068	1.465	89.722	166.443	105.98	6.72	51.22	35.770	0.588	-17.640	0.72305	0.53976	0.37531	-0.21188	23.2	13111	100
2025-5-25 9:59:27.606	WT901BLE68(801231B9234C)	-0.541	0.817	0.117	-14.648	56.824	153.564	105.56	3.53	52.02	35.770	0.588	-17.640	0.72305	0.53976	0.37531	-0.21188	23.2	13111	100
2025-5-25 9:59:27.607	WT901BLE68(801231B9234C)	-0.516	0.795	0.077	-25.208	64.636	143.677	104.86	0.64	52.78	35.770	0.588	-17.640	0.53845	0.71112	0.34790	0.28848	23.2	13111	100
2025-5-25 9:59:27.651	WT901BLE68(801231B9234C)	-0.681	0.833	0.040	-34.973	90.637	137.756	103.90	-2.18	54.10	35.770	0.588	-17.640	0.53845	0.71112	0.34790	0.28848	23.2	13111	100
2025-5-25 9:59:27.652	WT901BLE68(801231B9234C)	-0.882	0.870	0.072	-47.974	111.450	131.775	102.62	-4.95	56.02	35.770	0.588	-17.640	0.53845	0.71112	0.34790	0.28848	23.2	13111	100
2025-5-25 9:59:27.696	WT901BLE68(801231B9234C)	-0.960	0.896	-0.008	-58.167	97.229	130.798	101.04	-7.62	58.07	35.770	0.588	-17.640	0.53845	0.71112	0.34790	0.28848	23.2	13111	100
2025-5-25 9:59:27.697	WT901BLE68(801231B9234C)	-0.906	0.889	-0.051	-64.514	77.271	127.625	99.21	-10.03	59.90	35.770	0.588	-17.640	0.53845	0.71112	0.34790	0.28848	23.2	13111	100
2025-5-25 9:59:27.740	WT901BLE68(801231B9234C)	-0.979	0.841	-0.037	-57.739	84.534	121.643	97.27	-12.38	62.02	35.770	0.588	-17.640	0.53845	0.71112	0.34790	0.28848	23.2	13111	100
2025-5-25 9:59:27.741	WT901BLE68(801231B9234C)	-1.079	0.865	0.041	-41.443	96.680	107.178	95.30	-14.69	64.91	35.770	0.588	-17.640	0.53845	0.71112	0.34790	0.28848	23.2	13111	100
2025-5-25 9:59:27.765	WT901BLE68(801231B9234C)	-1.225	0.898	0.140	-27.161	88.379	77.454	93.49	-16.59	68.09	35.770	0.588	-17.640	0.53845	0.71112	0.34790	0.28848	23.2	13111	100
2025-5-25 9:59:27.765	WT901BLE68(801231B9234C)	-1.160	0.920	0.133	-24.170	48.645	30.457	91.81	-17.69	70.73	35.770	0.588	-17.640	0.53845	0.71112	0.34790	0.28848	23.2	13111	100
2025-5-25 9:59:27.808	WT901BLE68(801231B9234C)	-1.072	1.012	0.094	-19.958	8.911	-7.629	90.44	-17.83	72.63	35.770	0.588	-17.640	0.53845	0.71112	0.34790	0.28848	23.2	13111	100
2025-5-25 9:59:27.809	WT901BLE68(801231B9234C)	-1.055	1.041	0.050	-13.062	-7.141	-44.373	89.37	-17.19	73.97	23.618	-39.298	3.136	0.53845	0.71112	0.34790	0.28848	23.2	13111	100
2025-5-25 9:59:27.876	WT901BLE68(801231B9234C)	-1.091	1.128	0.055	-5.188	-13.306	-74.219	88.53	-15.89	75.14	23.618	-39.298	3.136	0.53845	0.71112	0.34790	0.28848	23.2	13111	100
2025-5-25 9:59:27.877	WT901BLE68(801231B9234C)	-1.051	1.229	0.067	-1.953	-33.630	-96.863	87.91	-14.07	75.96	23.618	-39.298	3.136	0.53845	0.71112	0.34790	0.28848	23.2	13111	100
2025-5-25 9:59:27.900	WT901BLE68(801231B9234C)	-0.941	1.336	0.072	-2.319	-66.895	-116.455	87.46	-11.87	76.14	23.618	-39.298	3.136	0.53845	0.71112	0.34790	0.28848	23.2	13111	100
2025-5-25 9:59:27.901	WT901BLE68(801231B9234C)	-0.794	1.373	0.044	-5.249	-93.811	-140.259	87.10	-9.23	75.66	23.618	-39.298	3.136	0.53845	0.71112	0.34790	0.28848	23.2	13111	100
2025-5-25 9:59:27.923	WT901BLE68(801231B9234C)	-0.658	1.401	-0.004	-7.690	-109.192	-160.156	86.73	-6.15	74.71	23.618	-39.298	3.136	0.53845	0.71112	0.34790	0.28848	23.2	13111	100
2025-5-25 9:59:27.924	WT901BLE68(801231B9234C)	-0.613	1.406	-0.016	-7.751	-110.474	-173.584	86.31	-2.69	73.54	23.618	-39.298	3.136	0.53845	0.71112	0.34790	0.28848	23.2	13111	100
2025-5-25 9:59:27.966	WT901BLE68(801231B9234C)	-0.642	1.389	0.039	-2.380	-105.103	-181.458	86.07	1.13	71.88	23.618	-39.298	3.136	0.53845	0.71112	0.34790	0.28848	23.2	13111	100
2025-5-25 9:59:27.967	WT901BLE68(801231B9234C)	-0.621	1.478	0.096	-0.977	-114.075	-189.636	85.86	5.07	69.80	23.618	-39.298	3.136	0.53845	0.71112	0.34790	0.28848	23.2	13111	100
2025-5-25 9:59:28.11	WT901BLE68(801231B9234C)	-0.539	1.504	0.067	-2.075	-130.737	-197.144	85.47	9.07	67.28	23.618	-39.298	3.136	0.53845	0.71112	0.34790	0.28848	23.2	13111	100
2025-5-25 9:59:28.11	WT901BLE68(801231B9234C)	-0.441	1.417	0.005	-0.305	-130.615	-206.238	84.89	13.15	64.51	23.618	-39.298	3.136	0.53845	0.71112	0.34790	0.28848	23.2	13111	100
2025-5-25 9:59:28.56	WT901BLE68(801231B9234C)	-0.321	1.243	-0.033	2.747	-119.080	-211.426	84.19	17.27	61.77	23.618	-39.298	3.136	0.67761	0.51700	0.43433	0.29123	23.2	13111	100
2025-5-25 9:59:28.57	WT901BLE68(801231B9234C)	-0.302	1.034	-0.073	13.184	-97.351	-217.468	83.53	21.45	59.27	23.618	-39.298	3.136	0.67761	0.51700	0.43433	0.29123	23.2	13111	100
2025-5-25 9:59:28.80	WT901BLE68(801231B9234C)	-0.288	0.898	-0.056	19.775	-76.843	-221.130	83.03	25.68	57.14	23.618	-39.298	3.136	0.67761	0.51700	0.43433	0.29123	23.2	13111	100
2025-5-25 9:59:28.81	WT901BLE68(801231B9234C)	-0.261	0.759	-0.039	28.320	-69.702	-216.919	82.65	29.82	55.17	23.618	-39.298	3.136	0.67761	0.51700	0.43433	0.29123	23.2	13111	100
2025-5-25 9:59:28.123	WT901BLE68(801231B9234C)	-0.196	0.659	-0.018	33.447	-71.533	-210.449	82.22	33.80	53.15	23.618	-39.298	3.136	0.67761	0.51700	0.43433	0.29123	23.2	13111	100
2025-5-25 9:59:28.123	WT901BLE68(801231B9234C)	-0.149	0.583	0.001	35.645	-69.702	-200.134	81.69	37.55	51.02	23.618	-39.298	3.136	0.67761	0.51700	0.43433	0.29123	23.2	13111	100
2025-5-25 9:59:28.169	WT901BLE68(801231B9234C)	-0.139	0.529	0.043	33.508	-62.622	-188.293	81.06	41.01	48.95	23.618	-39.298	3.136	0.67761	0.51700	0.43433	0.29123	23.2	13111	100
2025-5-25 9:59:28.169	WT901BLE68(801231B9234C)	-0.144	0.495	0.090	29.175	-49.866	-176.086	80.44	44.18	47.09	23.618	-39.298	3.136	0.67761	0.51700	0.43433	0.29123	23.2	13111	100
2025-5-25 9:59:28.222	WT901BLE68(801231B9234C)	-0.120	0.494	0.132	13.794	-48.706	-155.518	79.50	46.99	45.30	23.618	-39.298	3.136	0.67761	0.51700	0.43433	0.29123	23.2	13111	100
2025-5-25 9:59:28.222	WT901BLE68(801231B9234C)	-0.095	0.494	0.141	-4.272	-39.795	-130.371	78.27	49.28	43.68	23.618	-39.298	3.136	0.67761	0.51700	0.43433	0.29123	23.2	13111	100
2025-5-25 9:59:28.259	WT901BLE68(801231B9234C)	-0.054	0.515	0.113	-23.804	-31.921	-90.271	76.84	50.88	42.36	37.828	-2.254	-13.818	0.67761	0.51700	0.43433	0.29123	23.2	13111	100
2025-5-25 9:59:28.259	WT901BLE68(801231B9234C)	-0.053	0.493	0.082	-32.288	-13.672	-51.331	75.62	51.71	41.68	37.828	-2.254	-13.818	0.67761	0.51700	0.43433	0.29123	23.2	13111	100
2025-5-25 9:59:28.284	WT901BLE68(801231B9234C)	-0.141	0.523	0.090	-31.433	19.104	-18.372	75.19	51.93	42.06	37.828	-2.254	-13.818	0.67761	0.51700	0.43433	0.29123	23.2	13111	100
2025-5-25 9:59:28.284	WT901BLE68(801231B9234C)	-0.307	0.605	0.155	-24.048	61.401	7.813	76.00	51.77	43.90	37.828	-2.254	-13.818	0.67761	0.51700	0.43433	0.29123	23.2	13111	100
2025-5-25 9:59:28.326	WT901BLE68(801231B9234C)	-0.524	0.926	0.175	-13.184	93.506	44.556	77.92	51.13	47.02	37.828	-2.254	-13.818	0.67761	0.51700	0.43433	0.29123	23.2	13111	100
2025-5-25 9:59:28.326	WT901BLE68(801231B9234C)	-0.587	0.750	0.272	-10.498	94.727	61.523	80.27	50.04	50.56	37.828	-2.254	-13.818	0.67761	0.51700	0.43433	0.29123	23.2	13111	100
2025-5-25 9:59:28.372	WT901BLE68(801231B9234C)	-0.606	0.710	0.341	-8.484	74.707	78.613	82.21	48.49	53.58	37.828	-2.254	-13.818	0.67761	0.51700	0.43433	0.29123	23.2	13111	100
2025-5-25 9:59:28.372	WT901BLE68(801231B9234C)	-0.597	0.823	0.334	-13.306	51.880	88.257	83.40	46.68	55.78	37.828	-2.254	-13.818	0.67761	0.51700	0.43433	0.29123	23.2	13111	100
2025-5-25 9:59:28.422	WT901BLE68(801231B9234C)	-0.547	0.943	0.226	-18.494	34.851	116.943	83.98	44.46	57.39	37.828	-2.254	-13.818	0.67761	0.51700	0.43433	0.29123	23.2	13111	100
2025-5-25 9:59:28.422	WT901BLE68(801231B9234C)	-0.526	0.964	0.115	-15.747	22.095	157.898	84.24	41.50	58.61	37.828	-2.254	-13.818	0.67761	0.51700	0.43433	0.29123	23.2	13111	100
2025-5-25 9:59:28.461	WT901BLE68(801231B9234C)	-0.547	0.945	0.083	-6.714	19.226	202.393	84.56	37.71	59.72	37.828	-2.254	-13.818	0.71286	0.43900	0.52261	0.16086	23.2	13111	100
2025-5-25 9:59:28.462	WT901BLE68(801231B9234C)	-0.572	0.950	0.091	3.235	13.733	241.821	84.97	33.10	60.73	37.828	-2.254	-13.818	0.71286	0.43900	0.52261	0.16086	23.2	13111	100
2025-5-25 9:59:28.572	WT901BLE68(801231B9234C)	-0.554	1.087	0.153	10.864	-2.319	269.775	85.34	27.91	61.44	37.828	-2.254	-13.818	0.71286	0.43900	0.52261	0.16086	23.2	13111	100
2025-5-25 9:59:28.573	WT901BLE68(801231B9234C)	-0.507	1.249	0.244	14.526	-23.132	290.710	85.57	22.27	61.72	37.828	-2.254	-13.818	0.71286	0.43900	0.52261	0.16086	23.2	13111	100
2025-5-25 9:59:28.574	WT901BLE68(801231B9234C)	-0.421	1.382	0.264	17.761	-49.805	292.419	85.68	16.46	61.47	37.828	-2.254	-13.818	0.71286	0.43900	0.52261	0.16086	23.2	13111	100
2025-5-25 9:59:28.574	WT901BLE68(801231B9234C)	-0.357	1.500	0.202	25.818	-70.190	291.016	85.82	10.72	60.74	37.828	-2.254	-13.818	0.71286	0.43900	0.52261	0.16086	23.2	13111	100
2025-5-25 9:59:28.575	WT901BLE68(801231B9234C)	-0.330	1.499	0.161	38.330	-71.655	278.076	86.22	5.18	59.83	37.828	-2.254	-13.818	0.71286	0.43900	0.52261	0.16086	23.2	13111	100
2025-5-25 9:59:28.575	WT901BLE68(801231B9234C)	-0.282	1.335	0.160	47.058	-62.256	249.817	86.93	0.14	58.95	37.828	-2.254	-13.818	0.71286	0.43900	0.52261	0.16086	23.2	13111	100
2025-5-25 9:59:28.622	WT901BLE68(801231B9234C)	-0.240	1.111	0.184	52.490	-48.584	211.304	87.86	-4.16	58.20	37.828	-2.254	-13.818	0.71286	0.43900	0.52261	0.16086	23.2	13111	100
2025-5-25 9:59:28.622	WT901BLE68(801231B9234C)	-0.184	0.969	0.222	54.993	-28.137	169.617	88.87	-7.58	57.73	37.828	-2.254	-13.818	0.71286	0.43900	0.52261	0.16086	23.2	13111	100
2025-5-25 9:59:28.664	WT901BLE68(801231B9234C)	-0.180	0.823	0.277	53.345	-7.080	127.869	89.86	-10.16	57.64	26.166	-29.302	-10.486	0.71286	0.43900	0.52261	0.16086	23.2	13111	100
2025-5-25 9:59:28.664	WT901BLE68(801231B9234C)	-0.209	0.724	0.288	53.833	7.568	90.820	90.74	-11.91	57.88	26.166	-29.302	-10.486	0.71286	0.43900	0.52261	0.16086	23.2	13111	100
2025-5-25 9:59:28.688	WT901BLE68(801231B9234C)	-0.219	0.828	0.282	52.673	19.775	69.702	91.52	-13.13	58.43	26.166	-29.302	-10.486	0.71286	0.43900	0.52261	0.16086	23.2	13111	100
2025-5-25 9:59:28.688	WT901BLE68(801231B9234C)	-0.250	0.900	0.280	41.077	28.320	72.327	92.05	-14.27	59.22	26.166	-29.302	-10.486	0.71286	0.43900	0.52261	0.16086	23.2	13111	100
2025-5-25 9:59:28.730	WT901BLE68(801231B9234C)	-0.334	0.905	0.383	36.438	36.255	75.439	92.33	-15.47	60.27	26.166	-29.302	-10.486	0.71286	0.43900	0.52261	0.16086	23.2	13111	100
2025-5-25 9:59:28.731	WT901BLE68(801231B9234C)	-0.403	0.956	0.505	28.320	34.607	87.219	92.41	-16.88	61.52	26.166	-29.302	-10.486	0.71286	0.43900	0.52261	0.16086	23.2	13111	100
2025-5-25 9:59:28.776	WT901BLE68(801231B9234C)	-0.414	0.910	0.599	19.897	22.827	103.638	92.25	-18.66	62.81	26.166	-29.302	-10.486	0.71286	0.43900	0.52261	0.16086	23.2	13111	100
2025-5-25 9:59:28.776	WT901BLE68(801231B9234C)	-0.408	0.914	0.581	18.372	11.902	112.244	92.01	-20.74	64.07	26.166	-29.302	-10.486	0.71286	0.43900	0.52261	0.16086	23.2	13111	100
2025-5-25 9:59:28.823	WT901BLE68(801231B9234C)	-0.417	1.054	0.549	13.550	8.545	116.150	91.69	-22.98	65.36	26.166	-29.302	-10.486	0.71286	0.43900	0.52261	0.16086	23.2	13111	100
2025-5-25 9:59:28.823	WT901BLE68(801231B9234C)	-0.459	1.136	0.519	3.296	11.353	114.807	91.14	-25.29	66.76	26.166	-29.302	-10.486	0.71286	0.43900	0.52261	0.16086	23.2	13111	100
2025-5-25 9:59:28.866	WT901BLE68(801231B9234C)	-0.544	1.116	0.443	-2.380	20.447	96.130	90.31	-27.39	68.45	26.166	-29.302	-10.486	0.46356	0.66574	0.24765	0.52957	23.2	13111	100
2025-5-25 9:59:28.867	WT901BLE68(801231B9234C)	-0.538	1.197	0.413	-7.996	23.560	62.073	89.25	-28.92	70.40	26.166	-29.302	-10.486	0.46356	0.66574	0.24765	0.52957	23.2	13111	100
2025-5-25 9:59:28.890	WT901BLE68(801231B9234C)	-0.414	1.134	0.415	-16.602	18.005	27.588	88.01	-29.76	72.39	26.166	-29.302	-10.486	0.46356	0.66574	0.24765	0.52957	23.2	13111	100
2025-5-25 9:59:28.891	WT901BLE68(801231B9234C)	-0.289	1.141	0.354	-11.230	0.671	-10.986	86.90	-29.87	74.09	26.166	-29.302	-10.486	0.46356	0.66574	0.24765	0.52957	23.2	13111	100
2025-5-25 9:59:28.933	WT901BLE68(801231B9234C)	-0.280	1.406	0.339	-17.334	-3.296	-47.119	86.00	-29.19	75.48	26.166	-29.302	-10.486	0.46356	0.66574	0.24765	0.52957	23.2	13111	100
2025-5-25 9:59:28.933	WT901BLE68(801231B9234C)	-0.338	1.320	0.290	-28.992	12.939	-65.735	84.82	-27.98	77.00	26.166	-29.302	-10.486	0.46356	0.66574	0.24765	0.52957	23.2	13111	100
2025-5-25 9:59:28.979	WT901BLE68(801231B9234C)	-0.397	1.286	0.280	-32.471	29.419	-88.623	83.41	-26.30	78.83	26.166	-29.302	-10.486	0.46356	0.66574	0.24765	0.52957	23.2	13111	100
2025-5-25 9:59:28.979	WT901BLE68(801231B9234C)	-0.453	1.338	0.217	-35.522	39.856	-102.600	81.94	-24.18	80.79	26.166	-29.302	-10.486	0.46356	0.66574	0.24765	0.52957	23.2	13111	100
2025-5-25 9:59:29.25	WT901BLE68(801231B9234C)	-0.484	1.227	0.133	-40.405	39.001	-103.760	80.44	-21.86	82.73	26.166	-29.302	-10.486	0.46356	0.66574	0.24765	0.52957	23.2	13111	100
2025-5-25 9:59:29.26	WT901BLE68(801231B9234C)	-0.471	1.392	0.087	-39.612	16.296	-109.436	79.10	-19.52	84.29	26.166	-29.302	-10.486	0.46356	0.66574	0.24765	0.52957	23.2	13111	100
2025-5-25 9:59:29.48	WT901BLE68(801231B9234C)	-0.425	1.392	0.049	-36.560	-20.508	-112.671	78.31	-17.27	84.42	13.230	-40.670	-7.546	0.46356	0.66574	0.24765	0.52957	23.2	13111	100
2025-5-25 9:59:29.48	WT901BLE68(801231B9234C)	-0.348	1.438	0.019	-34.973	-60.547	-118.286	78.24	-14.84	82.25	13.230	-40.670	-7.546	0.46356	0.66574	0.24765	0.52957	23.2	13111	100
2025-5-25 9:59:29.93	WT901BLE68(801231B9234C)	-0.250	1.405	0.023	-34.058	-87.646	-124.573	78.26	-12.43	79.64	13.230	-40.670	-7.546	0.46356	0.66574	0.24765	0.52957	23.2	13111	100
2025-5-25 9:59:29.93	WT901BLE68(801231B9234C)	-0.154	1.249	0.039	-35.095	-96.008	-139.954	78.21	-9.88	76.82	13.230	-40.670	-7.546	0.46356	0.66574	0.24765	0.52957	23.2	13111	100
2025-5-25 9:59:29.159	WT901BLE68(801231B9234C)	-0.103	1.092	0.047	-35.828	-87.646	-163.940	78.01	-6.94	74.05	13.230	-40.670	-7.546	0.46356	0.66574	0.24765	0.52957	23.2	13111	100
2025-5-25 9:59:29.159	WT901BLE68(801231B9234C)	-0.109	0.983	0.035	-34.912	-66.589	-188.538	77.65	-3.51	71.59	13.230	-40.670	-7.546	0.46356	0.66574	0.24765	0.52957	23.2	13111	100
2025-5-25 9:59:29.183	WT901BLE68(801231B9234C)	-0.153	0.933	-0.002	-31.128	-48.157	-207.031	77.18	0.36	69.49	13.230	-40.670	-7.546	0.46356	0.66574	0.24765	0.52957	23.2	13111	100
2025-5-25 9:59:29.183	WT901BLE68(801231B9234C)	-0.181	0.916	-0.018	-25.940	-39.124	-216.003	76.69	4.44	67.58	13.230	-40.670	-7.546	0.46356	0.66574	0.24765	0.52957	23.2	13111	100
2025-5-25 9:59:29.228	WT901BLE68(801231B9234C)	-0.191	0.903	-0.017	-23.438	-42.725	-220.764	76.14	8.58	65.65	13.230	-40.670	-7.546	0.46356	0.66574	0.24765	0.52957	23.2	13111	100
2025-5-25 9:59:29.228	WT901BLE68(801231B9234C)	-0.173	0.942	-0.002	-23.438	-54.871	-220.093	75.46	12.64	63.50	13.230	-40.670	-7.546	0.46356	0.66574	0.24765	0.52957	23.2	13111	100
2025-5-25 9:59:29.251	WT901BLE68(801231B9234C)	-0.134	0.966	0.028	-27.344	-64.819	-216.980	74.53	16.52	61.08	13.230	-40.670	-7.546	0.72394	0.46017	0.40323	0.31848	23.2	13111	100
2025-5-25 9:59:29.252	WT901BLE68(801231B9234C)	-0.094	0.956	0.049	-31.372	-67.261	-210.449	73.31	20.19	58.51	13.230	-40.670	-7.546	0.72394	0.46017	0.40323	0.31848	23.2	13111	100
2025-5-25 9:59:29.296	WT901BLE68(801231B9234C)	-0.064	0.947	0.065	-34.729	-58.289	-198.975	71.88	23.59	55.98	13.230	-40.670	-7.546	0.72394	0.46017	0.40323	0.31848	23.2	13111	100
2025-5-25 9:59:29.296	WT901BLE68(801231B9234C)	-0.015	0.894	0.100	-39.673	-43.091	-186.035	70.34	26.75	53.72	13.230	-40.670	-7.546	0.72394	0.46017	0.40323	0.31848	23.2	13111	100
2025-5-25 9:59:29.339	WT901BLE68(801231B9234C)	-0.043	0.830	0.114	-38.452	-12.695	-169.434	68.94	29.65	52.00	13.230	-40.670	-7.546	0.72394	0.46017	0.40323	0.31848	23.2	13111	100
2025-5-25 9:59:29.339	WT901BLE68(801231B9234C)	-0.060	0.813	0.115	-34.790	14.465	-149.475	67.86	32.37	50.96	13.230	-40.670	-7.546	0.72394	0.46017	0.40323	0.31848	23.2	13111	100
2025-5-25 9:59:29.383	WT901BLE68(801231B9234C)	-0.100	0.796	0.117	-29.663	34.180	-123.230	67.19	34.74	50.57	13.230	-40.670	-7.546	0.72394	0.46017	0.40323	0.31848	23.2	13111	100
2025-5-25 9:59:29.383	WT901BLE68(801231B9234C)	-0.130	0.758	0.120	-22.766	43.213	-94.788	66.91	36.69	50.69	13.230	-40.670	-7.546	0.72394	0.46017	0.40323	0.31848	23.2	13111	100
2025-5-25 9:59:29.431	WT901BLE68(801231B9234C)	-0.188	0.698	0.144	-15.198	42.786	-61.340	66.99	38.06	51.19	13.230	-40.670	-7.546	0.72394	0.46017	0.40323	0.31848	23.2	13111	100
2025-5-25 9:59:29.431	WT901BLE68(801231B9234C)	-0.248	0.638	0.170	-7.385	37.598	-23.743	67.35	38.74	51.93	13.230	-40.670	-7.546	0.72394	0.46017	0.40323	0.31848	23.2	13111	100
2025-5-25 9:59:29.453	WT901BLE68(801231B9234C)	-0.214	0.696	0.191	3.906	27.405	28.015	68.10	38.50	52.96	35.672	-4.508	-18.424	0.72394	0.46017	0.40323	0.31848	23.2	13111	100
2025-5-25 9:59:29.453	WT901BLE68(801231B9234C)	-0.089	0.752	0.178	17.822	18.860	90.942	69.20	37.11	54.22	35.672	-4.508	-18.424	0.72394	0.46017	0.40323	0.31848	23.2	13111	100
2025-5-25 9:59:29.496	WT901BLE68(801231B9234C)	-0.060	0.724	0.188	38.086	16.907	153.442	70.78	34.49	55.81	35.672	-4.508	-18.424	0.72394	0.46017	0.40323	0.31848	23.2	13111	100
2025-5-25 9:59:29.496	WT901BLE68(801231B9234C)	-0.076	0.741	0.210	56.824	24.780	205.994	72.87	30.81	57.76	35.672	-4.508	-18.424	0.72394	0.46017	0.40323	0.31848	23.2	13111	100
2025-5-25 9:59:29.541	WT901BLE68(801231B9234C)	-0.150	0.894	0.268	80.200	59.021	247.437	75.51	26.29	60.21	35.672	-4.508	-18.424	0.72394	0.46017	0.40323	0.31848	23.2	13111	100
2025-5-25 9:59:29.542	WT901BLE68(801231B9234C)	-0.262	1.223	0.347	87.646	100.342	271.362	78.43	21.35	63.30	35.672	-4.508	-18.424	0.72394	0.46017	0.40323	0.31848	23.2	13111	100
2025-5-25 9:59:29.586	WT901BLE68(801231B9234C)	-0.553	1.571	0.427	77.393	127.869	283.325	81.12	16.10	66.82	35.672	-4.508	-18.424	0.72394	0.46017	0.40323	0.31848	23.2	13111	100
2025-5-25 9:59:29.586	WT901BLE68(801231B9234C)	-0.788	1.873	0.393	53.711	104.431	263.367	83.00	10.94	69.97	35.672	-4.508	-18.424	0.72394	0.46017	0.40323	0.31848	23.2	13111	100
2025-5-25 9:59:29.633	WT901BLE68(801231B9234C)	-0.812	1.818	0.206	40.039	40.527	224.609	84.09	6.36	71.86	35.672	-4.508	-18.424	0.72394	0.46017	0.40323	0.31848	23.2	13111	100
2025-5-25 9:59:29.633	WT901BLE68(801231B9234C)	-0.598	1.467	0.065	27.222	-44.678	207.520	84.64	2.24	71.97	35.672	-4.508	-18.424	0.72394	0.46017	0.40323	0.31848	23.2	13111	100
2025-5-25 9:59:29.656	WT901BLE68(801231B9234C)	-0.271	1.068	0.080	23.743	-102.844	167.236	85.06	-1.35	70.63	35.672	-4.508	-18.424	0.59058	0.56631	0.37692	0.43396	23.2	13111	100
2025-5-25 9:59:29.656	WT901BLE68(801231B9234C)	-0.094	0.842	0.094	34.424	-109.314	109.924	85.73	-3.87	68.65	35.672	-4.508	-18.424	0.59058	0.56631	0.37692	0.43396	23.2	13111	100
2025-5-25 9:59:29.698	WT901BLE68(801231B9234C)	-0.112	0.812	0.117	40.100	-83.435	57.678	86.58	-5.21	66.87	35.672	-4.508	-18.424	0.59058	0.56631	0.37692	0.43396	23.2	13111	100
2025-5-25 9:59:29.699	WT901BLE68(801231B9234C)	-0.140	0.811	0.169	39.673	-28.625	29.419	87.44	-5.77	65.96	35.672	-4.508	-18.424	0.59058	0.56631	0.37692	0.43396	23.2	13111	100
2025-5-25 9:59:29.743	WT901BLE68(801231B9234C)	-0.131	0.742	0.177	33.997	24.536	15.625	88.05	-5.90	66.12	35.672	-4.508	-18.424	0.59058	0.56631	0.37692	0.43396	23.2	13111	100
2025-5-25 9:59:29.743	WT901BLE68(801231B9234C)	-0.209	0.684	0.128	31.433	83.984	3.540	88.44	-5.79	67.41	35.672	-4.508	-18.424	0.59058	0.56631	0.37692	0.43396	23.2	13111	100
2025-5-25 9:59:29.789	WT901BLE68(801231B9234C)	-0.307	0.665	0.069	33.630	141.296	-3.906	88.70	-5.45	69.89	35.672	-4.508	-18.424	0.59058	0.56631	0.37692	0.43396	23.2	13111	100
2025-5-25 9:59:29.789	WT901BLE68(801231B9234C)	-0.406	0.787	-0.002	31.982	171.692	0.000	88.91	-5.11	73.17	35.672	-4.508	-18.424	0.59058	0.56631	0.37692	0.43396	23.2	13111	100
2025-5-25 9:59:29.811	WT901BLE68(801231B9234C)	-0.434	0.808	-0.009	27.649	176.208	13.123	89.08	-4.96	76.67	35.672	-4.508	-18.424	0.59058	0.56631	0.37692	0.43396	23.2	13111	100
2025-5-25 9:59:29.812	WT901BLE68(801231B9234C)	-0.470	0.772	-0.010	22.949	172.363	28.809	89.17	-5.09	80.07	35.672	-4.508	-18.424	0.59058	0.56631	0.37692	0.43396	23.2	13111	100
2025-5-25 9:59:29.855	WT901BLE68(801231B9234C)	-0.559	0.789	-0.025	21.118	161.499	49.744	89.23	-5.56	83.31	23.520	-37.044	-4.214	0.59058	0.56631	0.37692	0.43396	23.2	13111	100
2025-5-25 9:59:29.855	WT901BLE68(801231B9234C)	-0.617	0.789	-0.027	16.357	136.536	69.641	89.24	-6.44	86.18	23.520	-37.044	-4.214	0.59058	0.56631	0.37692	0.43396	23.2	13111	100
2025-5-25 9:59:29.903	WT901BLE68(801231B9234C)	-0.716	0.824	-0.005	7.751	98.328	84.839	89.14	-7.63	88.43	23.520	-37.044	-4.214	0.59058	0.56631	0.37692	0.43396	23.2	13111	100
2025-5-25 9:59:29.904	WT901BLE68(801231B9234C)	-0.749	0.934	0.053	1.465	60.791	100.952	88.93	-9.11	90.13	23.520	-37.044	-4.214	0.59058	0.56631	0.37692	0.43396	23.2	13111	100
2025-5-25 9:59:29.947	WT901BLE68(801231B9234C)	-0.668	1.061	0.111	-7.324	10.132	112.793	88.45	-10.91	91.53	23.520	-37.044	-4.214	0.59058	0.56631	0.37692	0.43396	23.2	13111	100
2025-5-25 9:59:29.947	WT901BLE68(801231B9234C)	-0.600	1.113	0.191	-14.465	-34.851	110.718	87.86	-12.89	92.30	23.520	-37.044	-4.214	0.59058	0.56631	0.37692	0.43396	23.2	13111	100
2025-5-25 9:59:29.991	WT901BLE68(801231B9234C)	-0.472	1.234	0.250	-23.804	-56.458	93.018	87.21	-14.66	92.49	23.520	-37.044	-4.214	0.59058	0.56631	0.37692	0.43396	23.2	13111	100
2025-5-25 9:59:29.992	WT901BLE68(801231B9234C)	-0.605	1.381	0.207	-22.827	-38.147	78.125	86.54	-16.14	92.74	23.520	-37.044	-4.214	0.59058	0.56631	0.37692	0.43396	23.2	13111	100
2025-5-25 9:59:30.22	WT901BLE68(801231B9234C)	-0.668	1.592	0.229	-21.240	-19.226	49.927	85.80	-17.09	93.46	23.520	-37.044	-4.214	0.59058	0.56631	0.37692	0.43396	23.2	13111	100
2025-5-25 9:59:30.22	WT901BLE68(801231B9234C)	-0.672	1.534	0.156	-18.127	-22.705	22.827	85.09	-17.51	94.27	23.520	-37.044	-4.214	0.59058	0.56631	0.37692	0.43396	23.2	13111	100
2025-5-25 9:59:30.59	WT901BLE68(801231B9234C)	-0.545	1.340	0.168	-11.841	-50.720	-16.479	84.61	-17.30	94.67	23.520	-37.044	-4.214	0.41940	0.53531	0.41464	0.60458	23.2	13111	100
2025-5-25 9:59:30.60	WT901BLE68(801231B9234C)	-0.383	1.346	0.186	-16.479	-108.276	-68.115	84.41	-16.22	94.03	23.520	-37.044	-4.214	0.41940	0.53531	0.41464	0.60458	23.2	13111	100
2025-5-25 9:59:30.105	WT901BLE68(801231B9234C)	-0.334	1.389	0.169	-25.391	-161.865	-116.943	84.40	-14.28	92.14	23.520	-37.044	-4.214	0.41940	0.53531	0.41464	0.60458	23.2	13111	100
2025-5-25 9:59:30.106	WT901BLE68(801231B9234C)	-0.310	1.433	0.098	-36.133	-194.031	-144.592	84.33	-11.65	89.28	23.520	-37.044	-4.214	0.41940	0.53531	0.41464	0.60458	23.2	13111	100
2025-5-25 9:59:30.148	WT901BLE68(801231B9234C)	-0.221	1.496	0.047	-47.974	-208.130	-145.996	84.06	-8.84	85.83	23.520	-37.044	-4.214	0.41940	0.53531	0.41464	0.60458	23.2	13111	100
2025-5-25 9:59:30.149	WT901BLE68(801231B9234C)	-0.146	1.413	0.013	-55.054	-212.402	-131.592	83.58	-6.22	81.65	23.520	-37.044	-4.214	0.41940	0.53531	0.41464	0.60458	23.2	13111	100
2025-5-25 9:59:30.194	WT901BLE68(801231B9234C)	-0.107	1.237	0.051	-62.439	-193.970	-124.207	82.83	-3.89	77.36	23.520	-37.044	-4.214	0.41940	0.53531	0.41464	0.60458	23.2	13111	100
2025-5-25 9:59:30.194	WT901BLE68(801231B9234C)	-0.074	1.055	0.080	-69.519	-161.743	-128.113	81.77	-1.62	73.49	23.520	-37.044	-4.214	0.41940	0.53531	0.41464	0.60458	23.2	13111	100
2025-5-25 9:59:30.221	WT901BLE68(801231B9234C)	-0.045	0.909	0.101	-74.341	-125.427	-138.733	80.43	0.81	70.22	23.520	-37.044	-4.214	0.41940	0.53531	0.41464	0.60458	23.2	13111	100
2025-5-25 9:59:30.221	WT901BLE68(801231B9234C)	-0.030	0.825	0.095	-78.857	-85.815	-148.804	78.90	3.44	67.62	23.520	-37.044	-4.214	0.41940	0.53531	0.41464	0.60458	23.2	13111	100
2025-5-25 9:59:30.262	WT901BLE68(801231B9234C)	-0.041	0.780	0.057	-81.055	-46.570	-155.029	77.24	6.27	65.69	20.188	-34.692	-12.446	0.41940	0.53531	0.41464	0.60458	23.2	13111	100
2025-5-25 9:59:30.262	WT901BLE68(801231B9234C)	-0.089	0.744	0.021	-81.604	-9.827	-156.677	75.57	9.24	64.41	20.188	-34.692	-12.446	0.41940	0.53531	0.41464	0.60458	23.2	13111	100
2025-5-25 9:59:30.306	WT901BLE68(801231B9234C)	-0.134	0.729	-0.001	-79.956	13.733	-154.297	73.98	12.25	63.60	20.188	-34.692	-12.446	0.41940	0.53531	0.41464	0.60458	23.2	13111	100
2025-5-25 9:59:30.306	WT901BLE68(801231B9234C)	-0.154	0.745	-0.003	-78.918	24.475	-149.109	72.44	15.21	63.03	20.188	-34.692	-12.446	0.41940	0.53531	0.41464	0.60458	23.2	13111	100
2025-5-25 9:59:30.352	WT901BLE68(801231B9234C)	-0.150	0.792	0.000	-79.346	25.208	-141.907	70.92	18.02	62.50	20.188	-34.692	-12.446	0.41940	0.53531	0.41464	0.60458	23.2	13111	100
2025-5-25 9:59:30.352	WT901BLE68(801231B9234C)	-0.131	0.832	0.002	-80.322	24.353	-131.592	69.37	20.60	61.93	20.188	-34.692	-12.446	0.41940	0.53531	0.41464	0.60458	23.2	13111	100
2025-5-25 9:59:30.396	WT901BLE68(801231B9234C)	-0.117	0.884	-0.009	-80.750	25.757	-118.713	67.81	22.94	61.41	20.188	-34.692	-12.446	0.41940	0.53531	0.41464	0.60458	23.2	13111	100
2025-5-25 9:59:30.396	WT901BLE68(801231B9234C)	-0.085	0.903	-0.015	-79.407	36.682	-103.699	66.36	25.02	61.08	20.188	-34.692	-12.446	0.41940	0.53531	0.41464	0.60458	23.2	13111	100
2025-5-25 9:59:30.421	WT901BLE68(801231B9234C)	-0.063	0.910	-0.015	-75.439	52.551	-88.196	65.14	26.90	61.14	20.188	-34.692	-12.446	0.41940	0.53531	0.41464	0.60458	23.2	13111	100
2025-5-25 9:59:30.422	WT901BLE68(801231B9234C)	-0.081	0.947	0.002	-69.031	75.073	-72.815	64.29	28.65	61.75	20.188	-34.692	-12.446	0.41940	0.53531	0.41464	0.60458	23.2	13111	100
2025-5-25 9:59:30.464	WT901BLE68(801231B9234C)	-0.111	0.970	-0.010	-59.875	93.567	-54.199	63.91	30.25	62.95	20.188	-34.692	-12.446	0.76703	0.31985	0.46002	0.31247	23.2	13111	100
2025-5-25 9:59:30.464	WT901BLE68(801231B9234C)	-0.153	0.925	0.006	-46.204	104.004	-30.334	64.06	31.55	64.68	20.188	-34.692	-12.446	0.76703	0.31985	0.46002	0.31247	23.2	13111	100
2025-5-25 9:59:30.509	WT901BLE68(801231B9234C)	-0.187	0.977	0.008	-31.311	99.060	1.099	64.70	32.32	66.73	20.188	-34.692	-12.446	0.76703	0.31985	0.46002	0.31247	23.2	13111	100
2025-5-25 9:59:30.509	WT901BLE68(801231B9234C)	-0.202	0.999	0.004	-15.625	92.529	38.391	65.76	32.37	69.01	20.188	-34.692	-12.446	0.76703	0.31985	0.46002	0.31247	23.2	13111	100
2025-5-25 9:59:30.554	WT901BLE68(801231B9234C)	-0.230	0.971	0.008	5.127	79.651	83.069	67.25	31.53	71.42	20.188	-34.692	-12.446	0.76703	0.31985	0.46002	0.31247	23.2	13111	100
2025-5-25 9:59:30.554	WT901BLE68(801231B9234C)	-0.285	0.902	0.031	29.175	70.496	127.991	69.18	29.73	73.92	20.188	-34.692	-12.446	0.76703	0.31985	0.46002	0.31247	23.2	13111	100
2025-5-25 9:59:30.598	WT901BLE68(801231B9234C)	-0.322	0.886	0.115	53.833	53.772	169.189	71.43	27.01	76.33	20.188	-34.692	-12.446	0.76703	0.31985	0.46002	0.31247	23.2	13111	100
2025-5-25 9:59:30.599	WT901BLE68(801231B9234C)	-0.337	1.002	0.206	71.411	22.217	201.660	73.73	23.41	78.22	20.188	-34.692	-12.446	0.76703	0.31985	0.46002	0.31247	23.2	13111	100
2025-5-25 9:59:30.623	WT901BLE68(801231B9234C)	-0.350	1.125	0.288	82.092	-23.132	216.431	75.79	19.18	79.19	20.188	-34.692	-12.446	0.76703	0.31985	0.46002	0.31247	23.2	13111	100
2025-5-25 9:59:30.623	WT901BLE68(801231B9234C)	-0.330	1.276	0.345	83.069	-75.623	214.111	77.50	14.70	79.01	20.188	-34.692	-12.446	0.76703	0.31985	0.46002	0.31247	23.2	13111	100
2025-5-25 9:59:30.667	WT901BLE68(801231B9234C)	-0.230	1.404	0.302	80.322	-120.972	201.172	78.89	10.26	77.70	34.300	-20.972	-10.094	0.76703	0.31985	0.46002	0.31247	23.2	13111	100
2025-5-25 9:59:30.667	WT901BLE68(801231B9234C)	-0.213	1.444	0.166	88.318	-120.728	182.312	80.46	6.17	75.93	34.300	-20.972	-10.094	0.76703	0.31985	0.46002	0.31247	23.2	13111	100
2025-5-25 9:59:30.713	WT901BLE68(801231B9234C)	-0.124	1.403	0.060	76.965	-118.347	194.336	81.99	2.25	74.08	34.300	-20.972	-10.094	0.76703	0.31985	0.46002	0.31247	23.2	13111	100
2025-5-25 9:59:30.713	WT901BLE68(801231B9234C)	-0.025	1.024	0.119	71.106	-93.262	186.279	83.41	-1.66	72.47	34.300	-20.972	-10.094	0.76703	0.31985	0.46002	0.31247	23.2	13111	100
2025-5-25 9:59:30.756	WT901BLE68(801231B9234C)	-0.079	0.881	0.173	74.646	-53.345	154.175	84.93	-4.94	71.41	34.300	-20.972	-10.094	0.76703	0.31985	0.46002	0.31247	23.2	13111	100
2025-5-25 9:59:30.756	WT901BLE68(801231B9234C)	-0.142	0.855	0.198	68.909	-14.709	124.939	86.35	-7.48	71.02	34.300	-20.972	-10.094	0.76703	0.31985	0.46002	0.31247	23.2	13111	100
2025-5-25 9:59:30.781	WT901BLE68(801231B9234C)	-0.149	0.849	0.208	64.087	13.000	101.624	87.57	-9.46	71.20	34.300	-20.972	-10.094	0.76703	0.31985	0.46002	0.31247	23.2	13111	100
2025-5-25 9:59:30.781	WT901BLE68(801231B9234C)	-0.133	0.893	0.229	57.068	40.894	83.923	88.54	-11.01	71.88	34.300	-20.972	-10.094	0.76703	0.31985	0.46002	0.31247	23.2	13111	100
2025-5-25 9:59:30.825	WT901BLE68(801231B9234C)	-0.151	0.896	0.236	45.776	71.350	75.623	89.14	-12.30	73.19	34.300	-20.972	-10.094	0.76703	0.31985	0.46002	0.31247	23.2	13111	100
2025-5-25 9:59:30.826	WT901BLE68(801231B9234C)	-0.200	0.891	0.219	39.368	97.290	73.303	89.40	-13.51	75.11	34.300	-20.972	-10.094	0.76703	0.31985	0.46002	0.31247	23.2	13111	100
2025-5-25 9:59:30.869	WT901BLE68(801231B9234C)	-0.267	0.852	0.268	35.400	118.652	87.219	89.33	-14.93	77.58	34.300	-20.972	-10.094	0.47299	0.60092	0.36890	0.52817	23.2	13111	100
2025-5-25 9:59:30.869	WT901BLE68(801231B9234C)	-0.366	0.977	0.323	32.349	134.216	90.332	89.04	-16.42	80.58	34.300	-20.972	-10.094	0.47299	0.60092	0.36890	0.52817	23.2	13111	100
2025-5-25 9:59:30.923	WT901BLE68(801231B9234C)	-0.440	1.021	0.354	29.785	134.033	94.849	88.51	-17.97	83.91	34.300	-20.972	-10.094	0.47299	0.60092	0.36890	0.52817	23.2	13111	100
2025-5-25 9:59:30.923	WT901BLE68(801231B9234C)	-0.535	1.088	0.380	27.283	119.385	98.511	87.84	-19.60	87.34	34.300	-20.972	-10.094	0.47299	0.60092	0.36890	0.52817	23.2	13111	100
2025-5-25 9:59:30.959	WT901BLE68(801231B9234C)	-0.587	1.086	0.398	21.057	88.196	96.375	87.09	-21.24	90.49	34.300	-20.972	-10.094	0.47299	0.60092	0.36890	0.52817	23.2	13111	100
2025-5-25 9:59:30.959	WT901BLE68(801231B9234C)	-0.651	1.054	0.363	16.296	49.561	89.844	86.40	-22.84	93.06	34.300	-20.972	-10.094	0.47299	0.60092	0.36890	0.52817	23.2	13111	100
2025-5-25 9:59:30.983	WT901BLE68(801231B9234C)	-0.670	1.131	0.346	11.963	15.320	71.716	85.84	-24.20	94.98	34.300	-20.972	-10.094	0.47299	0.60092	0.36890	0.52817	23.2	13111	100
2025-5-25 9:59:30.983	WT901BLE68(801231B9234C)	-0.615	1.077	0.340	2.563	-16.846	41.382	85.37	-25.12	96.27	34.300	-20.972	-10.094	0.47299	0.60092	0.36890	0.52817	23.2	13111	100
2025-5-25 9:59:31.28	WT901BLE68(801231B9234C)	-0.451	1.143	0.291	3.479	-52.734	-0.671	85.16	-25.32	96.76	34.300	-20.972	-10.094	0.47299	0.60092	0.36890	0.52817	23.2	13111	100
2025-5-25 9:59:31.28	WT901BLE68(801231B9234C)	-0.312	1.321	0.254	-2.563	-81.360	-34.424	85.25	-24.83	96.50	34.300	-20.972	-10.094	0.47299	0.60092	0.36890	0.52817	23.2	13111	100
2025-5-25 9:59:31.72	WT901BLE68(801231B9234C)	-0.277	1.440	0.240	-14.771	-85.999	-65.979	85.29	-23.74	95.87	7.938	-44.786	-1.470	0.47299	0.60092	0.36890	0.52817	23.2	13111	100
2025-5-25 9:59:31.72	WT901BLE68(801231B9234C)	-0.294	1.469	0.208	-30.518	-68.237	-90.393	84.97	-22.07	95.43	7.938	-44.786	-1.470	0.47299	0.60092	0.36890	0.52817	23.2	13111	100
2025-5-25 9:59:31.123	WT901BLE68(801231B9234C)	-0.487	1.385	0.178	-41.931	-50.293	-106.384	84.23	-20.01	95.33	7.938	-44.786	-1.470	0.47299	0.60092	0.36890	0.52817	23.2	13111	100
2025-5-25 9:59:31.123	WT901BLE68(801231B9234C)	-0.308	3.114	0.072	-40.771	-39.429	-94.543	83.31	-17.76	95.46	7.938	-44.786	-1.470	0.47299	0.60092	0.36890	0.52817	23.2	13111	100
2025-5-25 9:59:31.161	WT901BLE68(801231B9234C)	-0.348	1.394	0.143	-57.495	-42.114	-114.624	82.15	-15.42	95.52	7.938	-44.786	-1.470	0.47299	0.60092	0.36890	0.52817	23.2	13111	100
2025-5-25 9:59:31.162	WT901BLE68(801231B9234C)	-0.323	1.355	0.151	-63.782	-60.425	-127.502	80.99	-12.93	95.21	7.938	-44.786	-1.470	0.47299	0.60092	0.36890	0.52817	23.2	13111	100
2025-5-25 9:59:31.185	WT901BLE68(801231B9234C)	-0.266	1.385	0.130	-66.406	-82.703	-132.874	79.89	-10.31	94.13	7.938	-44.786	-1.470	0.47299	0.60092	0.36890	0.52817	23.2	13111	100
2025-5-25 9:59:31.186	WT901BLE68(801231B9234C)	-0.208	1.377	0.109	-70.129	-92.468	-136.108	78.88	-7.70	92.04	7.938	-44.786	-1.470	0.47299	0.60092	0.36890	0.52817	23.2	13111	100
2025-5-25 9:59:31.228	WT901BLE68(801231B9234C)	-0.159	1.281	0.092	-73.853	-91.187	-142.578	77.80	-5.07	89.50	7.938	-44.786	-1.470	0.47299	0.60092	0.36890	0.52817	23.2	13111	100
2025-5-25 9:59:31.228	WT901BLE68(801231B9234C)	-0.108	1.190	0.075	-76.965	-81.787	-152.405	76.56	-2.35	86.91	7.938	-44.786	-1.470	0.47299	0.60092	0.36890	0.52817	23.2	13111	100
2025-5-25 9:59:31.323	WT901BLE68(801231B9234C)	-0.086	1.110	0.053	-79.224	-65.247	-164.917	75.17	0.56	84.47	7.938	-44.786	-1.470	0.47299	0.60092	0.36890	0.52817	23.2	13111	100
2025-5-25 9:59:31.323	WT901BLE68(801231B9234C)	-0.073	1.051	0.037	-81.543	-44.861	-176.758	73.65	3.70	82.26	7.938	-44.786	-1.470	0.47299	0.60092	0.36890	0.52817	23.2	13111	100
2025-5-25 9:59:31.344	WT901BLE68(801231B9234C)	-0.070	0.997	0.039	-83.923	-24.475	-187.134	72.00	7.05	80.31	7.938	-44.786	-1.470	0.63681	0.42191	0.41574	0.49344	23.2	13111	100
2025-5-25 9:59:31.344	WT901BLE68(801231B9234C)	-0.079	0.965	0.023	-85.938	-5.859	-194.885	70.25	10.60	78.58	7.938	-44.786	-1.470	0.63681	0.42191	0.41574	0.49344	23.2	13111	100
2025-5-25 9:59:31.365	WT901BLE68(801231B9234C)	-0.085	0.942	0.013	-85.999	10.132	-198.242	68.45	14.25	77.03	7.938	-44.786	-1.470	0.63681	0.42191	0.41574	0.49344	23.2	13111	100
2025-5-25 9:59:31.366	WT901BLE68(801231B9234C)	-0.097	0.933	0.004	-83.740	21.973	-197.876	66.64	17.94	75.62	7.938	-44.786	-1.470	0.63681	0.42191	0.41574	0.49344	23.2	13111	100
2025-5-25 9:59:31.388	WT901BLE68(801231B9234C)	-0.109	0.929	0.017	-78.918	28.503	-193.542	64.88	21.55	74.30	7.938	-44.786	-1.470	0.63681	0.42191	0.41574	0.49344	23.2	13111	100
2025-5-25 9:59:31.389	WT901BLE68(801231B9234C)	-0.123	0.941	0.013	-73.914	29.480	-185.425	63.16	24.98	72.96	7.938	-44.786	-1.470	0.63681	0.42191	0.41574	0.49344	23.2	13111	100
2025-5-25 9:59:31.432	WT901BLE68(801231B9234C)	-0.113	0.899	0.016	-72.754	24.292	-173.706	61.43	28.15	71.56	7.938	-44.786	-1.470	0.63681	0.42191	0.41574	0.49344	23.2	13111	100
2025-5-25 9:59:31.432	WT901BLE68(801231B9234C)	-0.099	0.848	0.013	-65.186	25.635	-159.668	59.79	30.98	70.20	7.938	-44.786	-1.470	0.63681	0.42191	0.41574	0.49344	23.2	13111	100
2025-5-25 9:59:31.477	WT901BLE68(801231B9234C)	-0.112	0.845	0.018	-54.077	26.428	-136.963	58.33	33.45	68.94	7.938	-44.786	-1.470	0.63681	0.42191	0.41574	0.49344	23.2	13111	100
2025-5-25 9:59:31.477	WT901BLE68(801231B9234C)	-0.107	0.855	0.018	-48.584	24.292	-114.441	57.10	35.49	67.90	7.938	-44.786	-1.470	0.63681	0.42191	0.41574	0.49344	23.2	13111	100
2025-5-25 9:59:31.522	WT901BLE68(801231B9234C)	-0.078	0.786	0.014	-40.771	25.269	-83.557	56.18	37.02	67.18	34.790	-10.290	-17.052	0.63681	0.42191	0.41574	0.49344	23.2	13111	100
2025-5-25 9:59:31.522	WT901BLE68(801231B9234C)	-0.111	0.660	0.022	-24.902	30.579	-45.776	55.84	37.98	67.03	34.790	-10.290	-17.052	0.63681	0.42191	0.41574	0.49344	23.2	13111	100
2025-5-25 9:59:31.546	WT901BLE68(801231B9234C)	-0.126	0.669	0.072	-8.972	32.227	-2.197	56.23	38.31	67.54	34.790	-10.290	-17.052	0.63681	0.42191	0.41574	0.49344	23.2	13111	100
2025-5-25 9:59:31.546	WT901BLE68(801231B9234C)	-0.157	0.813	0.099	5.371	32.349	50.964	57.31	37.79	68.71	34.790	-10.290	-17.052	0.63681	0.42191	0.41574	0.49344	23.2	13111	100
2025-5-25 9:59:31.588	WT901BLE68(801231B9234C)	-0.133	0.937	0.073	19.531	32.043	103.333	59.01	36.36	70.54	34.790	-10.290	-17.052	0.63681	0.42191	0.41574	0.49344	23.2	13111	100
2025-5-25 9:59:31.589	WT901BLE68(801231B9234C)	-0.236	0.890	0.035	44.922	39.307	162.781	61.40	33.95	72.97	34.790	-10.290	-17.052	0.63681	0.42191	0.41574	0.49344	23.2	13111	100
2025-5-25 9:59:31.632	WT901BLE68(801231B9234C)	-0.373	0.877	0.087	69.153	34.241	211.975	64.40	30.55	75.81	34.790	-10.290	-17.052	0.63681	0.42191	0.41574	0.49344	23.2	13111	100
2025-5-25 9:59:31.632	WT901BLE68(801231B9234C)	-0.479	1.033	0.200	87.280	-10.254	250.916	67.35	26.05	78.08	34.790	-10.290	-17.052	0.63681	0.42191	0.41574	0.49344	23.2	13111	100
2025-5-25 9:59:31.702	WT901BLE68(801231B9234C)	-0.391	1.186	0.322	98.328	-84.656	262.451	69.76	20.68	78.87	34.790	-10.290	-17.052	0.63681	0.42191	0.41574	0.49344	23.2	13111	100
2025-5-25 9:59:31.702	WT901BLE68(801231B9234C)	-0.164	1.382	0.372	113.281	-144.470	258.423	71.81	14.86	78.01	34.790	-10.290	-17.052	0.63681	0.42191	0.41574	0.49344	23.2	13111	100
2025-5-25 9:59:31.725	WT901BLE68(801231B9234C)	-0.063	1.561	0.301	129.211	-154.602	238.464	74.00	9.29	76.33	34.790	-10.290	-17.052	0.65231	0.43726	0.42078	0.45404	23.2	13111	100
2025-5-25 9:59:31.726	WT901BLE68(801231B9234C)	-0.092	1.628	0.168	134.216	-130.676	206.909	76.52	4.49	74.57	34.790	-10.290	-17.052	0.65231	0.43726	0.42078	0.45404	23.2	13111	100
2025-5-25 9:59:31.747	WT901BLE68(801231B9234C)	-0.030	1.623	0.102	114.258	-98.816	200.867	78.97	0.24	73.11	34.790	-10.290	-17.052	0.65231	0.43726	0.42078	0.45404	23.2	13111	100
2025-5-25 9:59:31.747	WT901BLE68(801231B9234C)	0.052	1.186	0.155	95.947	-48.767	184.753	81.03	-3.69	72.30	34.790	-10.290	-17.052	0.65231	0.43726	0.42078	0.45404	23.2	13111	100
2025-5-25 9:59:31.792	WT901BLE68(801231B9234C)	-0.029	0.999	0.189	91.736	13.794	151.306	82.88	-6.81	72.43	34.790	-10.290	-17.052	0.65231	0.43726	0.42078	0.45404	23.2	13111	100
2025-5-25 9:59:31.792	WT901BLE68(801231B9234C)	-0.116	0.957	0.199	80.688	70.007	124.695	84.37	-9.20	73.60	34.790	-10.290	-17.052	0.65231	0.43726	0.42078	0.45404	23.2	13111	100
2025-5-25 9:59:31.834	WT901BLE68(801231B9234C)	-0.160	0.927	0.188	73.120	110.046	103.638	85.45	-11.07	75.59	34.790	-10.290	-17.052	0.65231	0.43726	0.42078	0.45404	23.2	13111	100
2025-5-25 9:59:31.835	WT901BLE68(801231B9234C)	-0.216	0.944	0.151	65.674	139.099	89.050	86.19	-12.56	78.19	34.790	-10.290	-17.052	0.65231	0.43726	0.42078	0.45404	23.2	13111	100
2025-5-25 9:59:31.881	WT901BLE68(801231B9234C)	-0.296	0.947	0.123	56.274	160.767	80.261	86.57	-13.82	81.28	34.790	-10.290	-17.052	0.65231	0.43726	0.42078	0.45404	23.2	13111	100
2025-5-25 9:59:31.881	WT901BLE68(801231B9234C)	-0.332	0.884	0.109	39.978	170.410	84.167	86.62	-15.04	84.67	34.790	-10.290	-17.052	0.65231	0.43726	0.42078	0.45404	23.2	13111	100
2025-5-25 9:59:31.926	WT901BLE68(801231B9234C)	-0.384	0.953	0.155	38.330	166.199	88.867	86.40	-16.23	88.09	14.700	-39.200	-7.742	0.65231	0.43726	0.42078	0.45404	23.2	13111	100
2025-5-25 9:59:31.926	WT901BLE68(801231B9234C)	-0.424	0.947	0.149	30.823	151.001	91.125	86.01	-17.48	91.40	14.700	-39.200	-7.742	0.65231	0.43726	0.42078	0.45404	23.2	13111	100
2025-5-25 9:59:31.951	WT901BLE68(801231B9234C)	-0.472	0.951	0.181	24.963	131.226	100.159	85.48	-18.86	94.55	14.700	-39.200	-7.742	0.65231	0.43726	0.42078	0.45404	23.2	13111	100
2025-5-25 9:59:31.951	WT901BLE68(801231B9234C)	-0.533	0.931	0.214	22.705	108.582	110.168	84.81	-20.45	97.77	14.700	-39.200	-7.742	0.65231	0.43726	0.42078	0.45404	23.2	13111	100
2025-5-25 9:59:31.994	WT901BLE68(801231B9234C)	-0.566	0.942	0.269	18.494	72.083	115.784	84.06	-22.27	100.88	14.700	-39.200	-7.742	0.65231	0.43726	0.42078	0.45404	23.2	13111	100
2025-5-25 9:59:31.994	WT901BLE68(801231B9234C)	-0.589	0.966	0.276	16.968	36.194	113.770	83.40	-24.21	103.41	14.700	-39.200	-7.742	0.65231	0.43726	0.42078	0.45404	23.2	13111	100
2025-5-25 9:59:32.37	WT901BLE68(801231B9234C)	-0.681	1.063	0.277	15.625	5.920	101.929	82.90	-26.05	105.32	14.700	-39.200	-7.742	0.65231	0.43726	0.42078	0.45404	23.2	13111	100
2025-5-25 9:59:32.38	WT901BLE68(801231B9234C)	-0.765	1.177	0.287	9.888	-15.259	75.012	82.52	-27.54	106.73	14.700	-39.200	-7.742	0.65231	0.43726	0.42078	0.45404	23.2	13111	100
2025-5-25 9:59:32.84	WT901BLE68(801231B9234C)	-0.654	1.342	0.280	4.883	-39.429	34.485	82.27	-28.38	107.57	14.700	-39.200	-7.742	0.65231	0.43726	0.42078	0.45404	23.2	13111	100
2025-5-25 9:59:32.84	WT901BLE68(801231B9234C)	-0.376	1.504	0.263	-2.869	-66.528	-12.146	82.21	-28.39	107.73	14.700	-39.200	-7.742	0.65231	0.43726	0.42078	0.45404	23.2	13111	100
2025-5-25 9:59:32.128	WT901BLE68(801231B9234C)	-0.148	1.576	0.215	-9.766	-81.116	-58.411	82.32	-27.55	107.27	14.700	-39.200	-7.742	0.30457	0.52628	0.40988	0.67981	23.2	13111	100
2025-5-25 9:59:32.129	WT901BLE68(801231B9234C)	-0.162	1.570	0.171	-22.949	-64.575	-103.638	82.24	-25.80	106.77	14.700	-39.200	-7.742	0.30457	0.52628	0.40988	0.67981	23.2	13111	100
2025-5-25 9:59:32.153	WT901BLE68(801231B9234C)	-0.208	1.489	0.156	-39.001	-26.123	-135.742	81.61	-23.20	106.85	14.700	-39.200	-7.742	0.30457	0.52628	0.40988	0.67981	23.2	13111	100
2025-5-25 9:59:32.153	WT901BLE68(801231B9234C)	-0.229	1.337	0.157	-44.067	1.099	-160.034	80.58	-20.00	107.46	14.700	-39.200	-7.742	0.30457	0.52628	0.40988	0.67981	23.2	13111	100
2025-5-25 9:59:32.196	WT901BLE68(801231B9234C)	-0.287	1.298	0.155	-49.194	23.621	-171.570	79.40	-16.42	108.35	14.700	-39.200	-7.742	0.30457	0.52628	0.40988	0.67981	23.2	13111	100
2025-5-25 9:59:32.196	WT901BLE68(801231B9234C)	-0.354	1.249	0.143	-47.974	34.119	-178.894	78.22	-12.58	109.32	14.700	-39.200	-7.742	0.30457	0.52628	0.40988	0.67981	23.2	13111	100
2025-5-25 9:59:32.241	WT901BLE68(801231B9234C)	-0.374	1.242	0.139	-44.434	17.029	-183.716	77.22	-8.63	109.83	14.700	-39.200	-7.742	0.30457	0.52628	0.40988	0.67981	23.2	13111	100
2025-5-25 9:59:32.241	WT901BLE68(801231B9234C)	-0.344	1.266	0.138	-42.908	-24.963	-182.312	76.43	-4.82	109.32	14.700	-39.200	-7.742	0.30457	0.52628	0.40988	0.67981	23.2	13111	100
2025-5-25 9:59:32.287	WT901BLE68(801231B9234C)	-0.271	1.230	0.126	-47.119	-74.524	-179.749	75.66	-1.33	107.59	14.700	-39.200	-7.742	0.30457	0.52628	0.40988	0.67981	23.2	13111	100
2025-5-25 9:59:32.287	WT901BLE68(801231B9234C)	-0.204	1.182	0.113	-52.307	-110.229	-181.946	74.76	1.85	104.84	14.700	-39.200	-7.742	0.30457	0.52628	0.40988	0.67981	23.2	13111	100
2025-5-25 9:59:32.333	WT901BLE68(801231B9234C)	-0.135	1.168	0.069	-58.289	-130.005	-181.213	73.58	4.83	101.40	21.952	-37.828	-3.822	0.30457	0.52628	0.40988	0.67981	23.2	13111	100
2025-5-25 9:59:32.333	WT901BLE68(801231B9234C)	-0.085	1.129	0.025	-65.063	-131.409	-181.091	72.11	7.62	97.70	21.952	-37.828	-3.822	0.30457	0.52628	0.40988	0.67981	23.2	13111	100
2025-5-25 9:59:32.355	WT901BLE68(801231B9234C)	-0.043	1.094	0.014	-70.801	-119.141	-179.321	70.38	10.29	93.98	21.952	-37.828	-3.822	0.30457	0.52628	0.40988	0.67981	23.2	13111	100
2025-5-25 9:59:32.356	WT901BLE68(801231B9234C)	-0.028	1.081	0.014	-76.050	-97.839	-176.697	68.46	12.86	90.52	21.952	-37.828	-3.822	0.30457	0.52628	0.40988	0.67981	23.2	13111	100
2025-5-25 9:59:32.398	WT901BLE68(801231B9234C)	-0.022	1.042	0.018	-79.773	-71.350	-173.828	66.42	15.41	87.42	21.952	-37.828	-3.822	0.30457	0.52628	0.40988	0.67981	23.2	13111	100
2025-5-25 9:59:32.399	WT901BLE68(801231B9234C)	-0.031	0.992	0.017	-81.482	-41.931	-169.373	64.35	17.97	84.77	21.952	-37.828	-3.822	0.30457	0.52628	0.40988	0.67981	23.2	13111	100
2025-5-25 9:59:32.442	WT901BLE68(801231B9234C)	-0.060	0.944	0.016	-80.200	-14.526	-163.513	62.35	20.56	82.60	21.952	-37.828	-3.822	0.30457	0.52628	0.40988	0.67981	23.2	13111	100
2025-5-25 9:59:32.442	WT901BLE68(801231B9234C)	-0.080	0.927	0.015	-77.515	4.639	-156.860	60.47	23.13	80.79	21.952	-37.828	-3.822	0.30457	0.52628	0.40988	0.67981	23.2	13111	100
2025-5-25 9:59:32.512	WT901BLE68(801231B9234C)	-0.085	0.889	0.004	-74.280	16.846	-147.949	58.70	25.63	79.23	21.952	-37.828	-3.822	0.30457	0.52628	0.40988	0.67981	23.2	13111	100
2025-5-25 9:59:32.512	WT901BLE68(801231B9234C)	-0.095	0.824	-0.002	-69.641	25.269	-137.329	57.07	27.99	77.89	21.952	-37.828	-3.822	0.30457	0.52628	0.40988	0.67981	23.2	13111	100
2025-5-25 9:59:32.522	WT901BLE68(801231B9234C)	-0.083	0.802	0.001	-67.200	27.405	-121.399	55.57	30.12	76.72	21.952	-37.828	-3.822	0.74554	0.21295	0.45947	0.43311	23.2	13111	100
2025-5-25 9:59:32.522	WT901BLE68(801231B9234C)	-0.100	0.800	-0.014	-57.678	35.522	-98.572	54.35	31.93	75.87	21.952	-37.828	-3.822	0.74554	0.21295	0.45947	0.43311	23.2	13111	100
2025-5-25 9:59:32.557	WT901BLE68(801231B9234C)	-0.102	0.818	-0.005	-49.683	40.161	-73.181	53.50	33.40	75.42	21.952	-37.828	-3.822	0.74554	0.21295	0.45947	0.43311	23.2	13111	100
2025-5-25 9:59:32.557	WT901BLE68(801231B9234C)	-0.094	0.777	-0.016	-40.100	43.640	-40.710	53.11	34.40	75.46	21.952	-37.828	-3.822	0.74554	0.21295	0.45947	0.43311	23.2	13111	100
2025-5-25 9:59:32.603	WT901BLE68(801231B9234C)	-0.109	0.706	0.000	-28.748	41.626	-3.906	53.14	34.86	75.96	21.952	-37.828	-3.822	0.74554	0.21295	0.45947	0.43311	23.2	13111	100
2025-5-25 9:59:32.603	WT901BLE68(801231B9234C)	-0.135	0.781	0.030	-10.742	50.842	38.757	53.96	34.68	77.21	21.952	-37.828	-3.822	0.74554	0.21295	0.45947	0.43311	23.2	13111	100
2025-5-25 9:59:32.671	WT901BLE68(801231B9234C)	-0.143	0.850	0.045	4.578	55.969	85.144	55.44	33.85	79.13	21.952	-37.828	-3.822	0.74554	0.21295	0.45947	0.43311	23.2	13111	100
2025-5-25 9:59:32.671	WT901BLE68(801231B9234C)	-0.168	0.911	0.020	23.438	62.378	133.911	57.58	32.23	81.73	21.952	-37.828	-3.822	0.74554	0.21295	0.45947	0.43311	23.2	13111	100
2025-5-25 9:59:32.694	WT901BLE68(801231B9234C)	-0.207	0.869	0.033	46.326	72.510	182.739	60.36	29.79	84.94	21.952	-37.828	-3.822	0.74554	0.21295	0.45947	0.43311	23.2	13111	100
2025-5-25 9:59:32.694	WT901BLE68(801231B9234C)	-0.250	0.924	0.096	67.200	69.031	221.802	63.52	26.50	88.37	38.416	-6.468	-13.622	0.74554	0.21295	0.45947	0.43311	23.2	13111	100
2025-5-25 9:59:32.723	WT901BLE68(801231B9234C)	-0.323	1.105	0.198	80.261	47.424	251.526	66.62	22.38	91.48	38.416	-6.468	-13.622	0.74554	0.21295	0.45947	0.43311	23.2	13111	100
2025-5-25 9:59:32.723	WT901BLE68(801231B9234C)	-0.332	1.320	0.274	84.290	5.127	265.564	69.30	17.55	93.72	38.416	-6.468	-13.622	0.74554	0.21295	0.45947	0.43311	23.2	13111	100
2025-5-25 9:59:32.781	WT901BLE68(801231B9234C)	-0.300	1.567	0.315	78.552	-46.753	267.944	71.37	12.25	94.75	38.416	-6.468	-13.622	0.74554	0.21295	0.45947	0.43311	23.2	13111	100
2025-5-25 9:59:32.782	WT901BLE68(801231B9234C)	-0.284	1.731	0.206	80.750	-91.919	256.348	73.09	6.78	94.61	38.416	-6.468	-13.622	0.74554	0.21295	0.45947	0.43311	23.2	13111	100
2025-5-25 9:59:32.805	WT901BLE68(801231B9234C)	-0.231	1.725	0.089	86.304	-105.591	237.915	74.87	1.63	93.74	38.416	-6.468	-13.622	0.74554	0.21295	0.45947	0.43311	23.2	13111	100
2025-5-25 9:59:32.805	WT901BLE68(801231B9234C)	-0.173	1.556	0.085	80.811	-101.746	244.812	76.68	-3.39	92.61	38.416	-6.468	-13.622	0.74554	0.21295	0.45947	0.43311	23.2	13111	100
2025-5-25 9:59:32.848	WT901BLE68(801231B9234C)	-0.103	1.173	0.193	70.618	-74.829	223.755	78.33	-8.18	91.64	38.416	-6.468	-13.622	0.74554	0.21295	0.45947	0.43311	23.2	13111	100
2025-5-25 9:59:32.849	WT901BLE68(801231B9234C)	-0.127	0.977	0.274	68.420	-36.865	178.589	79.87	-11.99	91.10	38.416	-6.468	-13.622	0.74554	0.21295	0.45947	0.43311	23.2	13111	100
2025-5-25 9:59:32.894	WT901BLE68(801231B9234C)	-0.098	0.896	0.260	62.561	-0.061	138.306	81.16	-14.76	91.08	38.416	-6.468	-13.622	0.74554	0.21295	0.45947	0.43311	23.2	13111	100
2025-5-25 9:59:32.895	WT901BLE68(801231B9234C)	-0.078	0.854	0.209	60.547	29.663	108.887	82.21	-16.77	91.58	38.416	-6.468	-13.622	0.74554	0.21295	0.45947	0.43311	23.2	13111	100
2025-5-25 9:59:32.922	WT901BLE68(801231B9234C)	-0.145	0.914	0.195	55.115	62.439	87.585	82.98	-18.22	92.63	38.416	-6.468	-13.622	0.42563	0.54211	0.39206	0.60922	23.2	13111	100
2025-5-25 9:59:32.923	WT901BLE68(801231B9234C)	-0.238	0.955	0.204	46.265	101.624	75.562	83.29	-19.27	94.48	38.416	-6.468	-13.622	0.42563	0.54211	0.39206	0.60922	23.2	13111	100
2025-5-25 9:59:32.962	WT901BLE68(801231B9234C)	-0.326	0.961	0.220	38.635	121.826	73.059	83.20	-20.13	96.94	38.416	-6.468	-13.622	0.42563	0.54211	0.39206	0.60922	23.2	13111	100
2025-5-25 9:59:32.962	WT901BLE68(801231B9234C)	-0.415	0.993	0.250	31.372	126.465	77.148	82.82	-20.98	99.73	38.416	-6.468	-13.622	0.42563	0.54211	0.39206	0.60922	23.2	13111	100
2025-5-25 9:59:33.6	WT901BLE68(801231B9234C)	-0.499	0.994	0.285	22.705	122.803	86.121	82.16	-21.93	102.77	38.416	-6.468	-13.622	0.42563	0.54211	0.39206	0.60922	23.2	13111	100
2025-5-25 9:59:33.6	WT901BLE68(801231B9234C)	-0.557	0.975	0.311	15.442	111.389	94.116	81.19	-23.05	106.13	38.416	-6.468	-13.622	0.42563	0.54211	0.39206	0.60922	23.2	13111	100
2025-5-25 9:59:33.53	WT901BLE68(801231B9234C)	-0.580	0.990	0.317	10.071	87.097	98.267	80.06	-24.33	109.51	38.416	-6.468	-13.622	0.42563	0.54211	0.39206	0.60922	23.2	13111	100
2025-5-25 9:59:33.53	WT901BLE68(801231B9234C)	-0.656	1.004	0.309	6.104	61.218	93.079	78.92	-25.68	112.56	38.416	-6.468	-13.622	0.42563	0.54211	0.39206	0.60922	23.2	13111	100
2025-5-25 9:59:33.75	WT901BLE68(801231B9234C)	-0.696	1.063	0.288	3.845	37.537	69.580	77.89	-26.75	115.13	38.416	-6.468	-13.622	0.42563	0.54211	0.39206	0.60922	23.2	13111	100
2025-5-25 9:59:33.76	WT901BLE68(801231B9234C)	-0.636	1.063	0.286	0.244	17.151	40.100	76.99	-27.33	117.19	38.416	-6.468	-13.622	0.42563	0.54211	0.39206	0.60922	23.2	13111	100
2025-5-25 9:59:33.122	WT901BLE68(801231B9234C)	-0.480	1.080	0.282	-1.282	-8.972	5.920	76.32	-27.39	118.61	7.154	-44.002	-1.862	0.42563	0.54211	0.39206	0.60922	23.2	13111	100
2025-5-25 9:59:33.122	WT901BLE68(801231B9234C)	-0.386	1.222	0.232	0.366	-34.546	-37.781	76.06	-26.75	119.23	7.154	-44.002	-1.862	0.42563	0.54211	0.39206	0.60922	23.2	13111	100
2025-5-25 9:59:33.166	WT901BLE68(801231B9234C)	-0.383	1.447	0.222	-6.348	-45.105	-73.669	76.00	-25.44	119.28	7.154	-44.002	-1.862	0.42563	0.54211	0.39206	0.60922	23.2	13111	100
2025-5-25 9:59:33.166	WT901BLE68(801231B9234C)	-0.385	1.537	0.213	-19.287	-37.537	-102.173	75.81	-23.53	119.16	7.154	-44.002	-1.862	0.42563	0.54211	0.39206	0.60922	23.2	13111	100
2025-5-25 9:59:33.209	WT901BLE68(801231B9234C)	-0.364	1.438	0.160	-30.273	-28.931	-116.760	75.33	-21.20	119.15	7.154	-44.002	-1.862	0.42563	0.54211	0.39206	0.60922	23.2	13111	100
2025-5-25 9:59:33.209	WT901BLE68(801231B9234C)	-0.369	1.345	0.119	-35.645	-24.231	-129.822	74.69	-18.61	119.15	7.154	-44.002	-1.862	0.42563	0.54211	0.39206	0.60922	23.2	13111	100
2025-5-25 9:59:33.254	WT901BLE68(801231B9234C)	-0.384	1.371	0.100	-39.185	-30.701	-142.761	74.00	-15.77	119.01	7.154	-44.002	-1.862	0.42563	0.54211	0.39206	0.60922	23.2	13111	100
2025-5-25 9:59:33.255	WT901BLE68(801231B9234C)	-0.375	1.387	0.093	-41.809	-54.565	-151.672	73.37	-12.85	118.41	7.154	-44.002	-1.862	0.42563	0.54211	0.39206	0.60922	23.2	13111	100
2025-5-25 9:59:33.279	WT901BLE68(801231B9234C)	-0.319	1.463	0.084	-44.495	-88.745	-156.921	72.83	-9.98	116.97	7.154	-44.002	-1.862	0.42563	0.54211	0.39206	0.60922	23.2	13111	100
2025-5-25 9:59:33.279	WT901BLE68(801231B9234C)	-0.243	1.542	0.082	-49.988	-113.464	-159.180	72.44	-7.26	114.06	7.154	-44.002	-1.862	0.42563	0.54211	0.39206	0.60922	23.2	13111	100
2025-5-25 9:59:33.322	WT901BLE68(801231B9234C)	-0.164	1.477	0.075	-55.359	-119.080	-163.757	71.96	-4.67	110.40	7.154	-44.002	-1.862	0.45538	0.36612	0.46158	0.66739	23.2	13111	100
2025-5-25 9:59:33.322	WT901BLE68(801231B9234C)	-0.099	1.343	0.066	-60.669	-110.413	-175.110	71.22	-1.98	106.69	7.154	-44.002	-1.862	0.45538	0.36612	0.46158	0.66739	23.2	13111	100
2025-5-25 9:59:33.366	WT901BLE68(801231B9234C)	-0.070	1.234	0.050	-64.148	-91.797	-190.186	70.22	0.96	103.15	7.154	-44.002	-1.862	0.45538	0.36612	0.46158	0.66739	23.2	13111	100
2025-5-25 9:59:33.367	WT901BLE68(801231B9234C)	-0.059	1.153	0.026	-67.017	-69.092	-206.604	69.02	4.25	99.89	7.154	-44.002	-1.862	0.45538	0.36612	0.46158	0.66739	23.2	13111	100
2025-5-25 9:59:33.411	WT901BLE68(801231B9234C)	-0.067	1.085	0.007	-66.833	-47.424	-219.055	67.64	7.85	96.88	7.154	-44.002	-1.862	0.45538	0.36612	0.46158	0.66739	23.2	13111	100
2025-5-25 9:59:33.411	WT901BLE68(801231B9234C)	-0.087	1.046	-0.010	-66.772	-30.457	-226.440	66.14	11.63	94.06	7.154	-44.002	-1.862	0.45538	0.36612	0.46158	0.66739	23.2	13111	100
2025-5-25 9:59:33.455	WT901BLE68(801231B9234C)	-0.125	1.015	-0.012	-65.674	-18.250	-228.271	64.52	15.49	91.38	7.154	-44.002	-1.862	0.45538	0.36612	0.46158	0.66739	23.2	13111	100
2025-5-25 9:59:33.455	WT901BLE68(801231B9234C)	-0.114	0.992	0.000	-69.458	-19.653	-227.478	62.76	19.25	88.68	7.154	-44.002	-1.862	0.45538	0.36612	0.46158	0.66739	23.2	13111	100
2025-5-25 9:59:33.481	WT901BLE68(801231B9234C)	-0.121	0.979	-0.000	-63.293	-17.517	-215.454	60.86	22.73	85.89	7.154	-44.002	-1.862	0.45538	0.36612	0.46158	0.66739	23.2	13111	100
2025-5-25 9:59:33.481	WT901BLE68(801231B9234C)	-0.126	0.953	0.007	-59.875	-19.165	-202.942	58.89	25.92	83.06	7.154	-44.002	-1.862	0.45538	0.36612	0.46158	0.66739	23.2	13111	100
2025-5-25 9:59:33.523	WT901BLE68(801231B9234C)	-0.115	0.893	0.004	-57.190	-19.653	-185.974	56.88	28.71	80.26	31.654	-18.326	-15.778	0.45538	0.36612	0.46158	0.66739	23.2	13111	100
2025-5-25 9:59:33.524	WT901BLE68(801231B9234C)	-0.095	0.819	0.004	-53.589	-17.090	-167.664	54.88	31.12	77.56	31.654	-18.326	-15.778	0.45538	0.36612	0.46158	0.66739	23.2	13111	100
2025-5-25 9:59:33.569	WT901BLE68(801231B9234C)	-0.073	0.828	0.007	-47.668	-7.202	-145.020	53.10	33.17	75.19	31.654	-18.326	-15.778	0.45538	0.36612	0.46158	0.66739	23.2	13111	100
2025-5-25 9:59:33.569	WT901BLE68(801231B9234C)	-0.068	0.838	-0.006	-41.565	5.127	-117.371	51.64	34.88	73.30	31.654	-18.326	-15.778	0.45538	0.36612	0.46158	0.66739	23.2	13111	100
2025-5-25 9:59:33.623	WT901BLE68(801231B9234C)	-0.083	0.792	-0.014	-33.142	19.836	-86.975	50.69	36.25	72.09	31.654	-18.326	-15.778	0.45538	0.36612	0.46158	0.66739	23.2	13111	100
2025-5-25 9:59:33.623	WT901BLE68(801231B9234C)	-0.092	0.716	-0.001	-22.095	31.921	-53.650	50.36	37.27	71.61	31.654	-18.326	-15.778	0.45538	0.36612	0.46158	0.66739	23.2	13111	100
2025-5-25 9:59:33.683	WT901BLE68(801231B9234C)	-0.130	0.636	0.019	-10.498	35.034	-16.785	50.61	37.81	71.80	31.654	-18.326	-15.778	0.45538	0.36612	0.46158	0.66739	23.2	13111	100
2025-5-25 9:59:33.683	WT901BLE68(801231B9234C)	-0.153	0.671	0.064	5.371	38.696	24.353	51.66	37.78	72.75	31.654	-18.326	-15.778	0.45538	0.36612	0.46158	0.66739	23.2	13111	100
2025-5-25 9:59:33.684	WT901BLE68(801231B9234C)	-0.160	0.774	0.072	18.433	37.231	71.289	53.32	37.02	74.31	31.654	-18.326	-15.778	0.45538	0.36612	0.46158	0.66739	23.2	13111	100
2025-5-25 9:59:33.684	WT901BLE68(801231B9234C)	-0.149	0.858	0.052	33.630	39.124	120.728	55.56	35.45	76.50	31.654	-18.326	-15.778	0.45538	0.36612	0.46158	0.66739	23.2	13111	100
2025-5-25 9:59:33.726	WT901BLE68(801231B9234C)	-0.198	0.857	0.052	54.565	48.828	171.631	58.44	33.04	79.30	31.654	-18.326	-15.778	0.72046	0.22058	0.49094	0.43723	23.2	13111	100
2025-5-25 9:59:33.726	WT901BLE68(801231B9234C)	-0.266	0.900	0.110	74.463	53.894	215.088	61.82	29.80	82.55	31.654	-18.326	-15.778	0.72046	0.22058	0.49094	0.43723	23.2	13111	100
2025-5-25 9:59:33.773	WT901BLE68(801231B9234C)	-0.324	1.052	0.206	88.928	41.016	249.451	65.25	25.71	85.68	31.654	-18.326	-15.778	0.72046	0.22058	0.49094	0.43723	23.2	13111	100
2025-5-25 9:59:33.774	WT901BLE68(801231B9234C)	-0.366	1.225	0.307	93.933	10.803	267.029	68.32	20.90	88.13	31.654	-18.326	-15.778	0.72046	0.22058	0.49094	0.43723	23.2	13111	100
2025-5-25 9:59:33.823	WT901BLE68(801231B9234C)	-0.322	1.454	0.360	89.172	-36.499	270.325	70.77	15.62	89.51	31.654	-18.326	-15.778	0.72046	0.22058	0.49094	0.43723	23.2	13111	100
2025-5-25 9:59:33.823	WT901BLE68(801231B9234C)	-0.251	1.610	0.251	93.323	-72.510	262.756	72.74	10.17	89.74	31.654	-18.326	-15.778	0.72046	0.22058	0.49094	0.43723	23.2	13111	100
2025-5-25 9:59:33.841	WT901BLE68(801231B9234C)	-0.215	1.681	0.118	84.656	-88.623	248.291	74.56	4.93	89.33	31.654	-18.326	-15.778	0.72046	0.22058	0.49094	0.43723	23.2	13111	100
2025-5-25 9:59:33.841	WT901BLE68(801231B9234C)	-0.144	1.636	0.062	74.585	-77.148	254.639	76.23	-0.23	88.74	31.654	-18.326	-15.778	0.72046	0.22058	0.49094	0.43723	23.2	13111	100
2025-5-25 9:59:33.885	WT901BLE68(801231B9234C)	-0.075	1.262	0.145	71.106	-47.119	230.774	77.75	-5.08	88.40	31.654	-18.326	-15.778	0.72046	0.22058	0.49094	0.43723	23.2	13111	100
2025-5-25 9:59:33.886	WT901BLE68(801231B9234C)	-0.134	1.131	0.196	70.557	-4.578	188.721	79.22	-8.98	88.52	31.654	-18.326	-15.778	0.72046	0.22058	0.49094	0.43723	23.2	13111	100
2025-5-25 9:59:33.928	WT901BLE68(801231B9234C)	-0.196	1.040	0.213	60.913	35.400	148.010	80.38	-11.88	89.27	21.560	-32.536	-10.976	0.72046	0.22058	0.49094	0.43723	23.2	13111	100
2025-5-25 9:59:33.929	WT901BLE68(801231B9234C)	-0.196	0.969	0.189	56.763	53.711	115.112	81.27	-13.97	90.38	21.560	-32.536	-10.976	0.72046	0.22058	0.49094	0.43723	23.2	13111	100
2025-5-25 9:59:33.976	WT901BLE68(801231B9234C)	-0.221	0.981	0.146	54.993	69.336	89.294	82.02	-15.47	91.69	21.560	-32.536	-10.976	0.72046	0.22058	0.49094	0.43723	23.2	13111	100
2025-5-25 9:59:33.976	WT901BLE68(801231B9234C)	-0.260	1.000	0.130	46.692	85.327	73.608	82.57	-16.55	93.28	21.560	-32.536	-10.976	0.72046	0.22058	0.49094	0.43723	23.2	13111	100
2025-5-25 9:59:34.23	WT901BLE68(801231B9234C)	-0.301	1.052	0.162	41.138	95.825	69.153	82.85	-17.42	95.13	21.560	-32.536	-10.976	0.72046	0.22058	0.49094	0.43723	23.2	13111	100
2025-5-25 9:59:34.23	WT901BLE68(801231B9234C)	-0.326	0.981	0.187	35.950	99.365	69.214	82.94	-18.22	97.14	21.560	-32.536	-10.976	0.72046	0.22058	0.49094	0.43723	23.2	13111	100
2025-5-25 9:59:34.44	WT901BLE68(801231B9234C)	-0.389	0.962	0.202	32.410	99.670	76.477	82.86	-19.07	99.32	21.560	-32.536	-10.976	0.72046	0.22058	0.49094	0.43723	23.2	13111	100
2025-5-25 9:59:34.44	WT901BLE68(801231B9234C)	-0.467	0.910	0.244	28.503	97.900	87.036	82.58	-20.10	101.81	21.560	-32.536	-10.976	0.72046	0.22058	0.49094	0.43723	23.2	13111	100
2025-5-25 9:59:34.88	WT901BLE68(801231B9234C)	-0.504	0.907	0.268	23.804	84.778	96.802	82.07	-21.36	104.64	21.560	-32.536	-10.976	0.72046	0.22058	0.49094	0.43723	23.2	13111	100
2025-5-25 9:59:34.89	WT901BLE68(801231B9234C)	-0.527	0.923	0.281	19.531	57.678	105.591	81.43	-22.90	107.43	21.560	-32.536	-10.976	0.72046	0.22058	0.49094	0.43723	23.2	13111	100
2025-5-25 9:59:34.132	WT901BLE68(801231B9234C)	-0.552	0.962	0.277	14.893	27.832	105.896	80.82	-24.60	109.75	21.560	-32.536	-10.976	0.29596	0.50024	0.42322	0.69495	23.2	13111	100
2025-5-25 9:59:34.132	WT901BLE68(801231B9234C)	-0.614	1.016	0.264	11.536	10.498	94.421	80.26	-26.24	111.68	21.560	-32.536	-10.976	0.29596	0.50024	0.42322	0.69495	23.2	13111	100
2025-5-25 9:59:34.176	WT901BLE68(801231B9234C)	-0.661	1.063	0.260	6.775	4.456	66.040	79.67	-27.46	113.40	21.560	-32.536	-10.976	0.29596	0.50024	0.42322	0.69495	23.2	13111	100
2025-5-25 9:59:34.176	WT901BLE68(801231B9234C)	-0.577	1.076	0.250	-2.136	-3.967	28.870	79.03	-28.00	114.90	21.560	-32.536	-10.976	0.29596	0.50024	0.42322	0.69495	23.2	13111	100
2025-5-25 9:59:34.221	WT901BLE68(801231B9234C)	-0.366	1.300	0.250	-2.686	-18.066	-14.587	78.50	-27.78	115.97	21.560	-32.536	-10.976	0.29596	0.50024	0.42322	0.69495	23.2	13111	100
2025-5-25 9:59:34.221	WT901BLE68(801231B9234C)	-0.161	1.532	0.216	-8.362	-31.677	-58.594	78.14	-26.75	116.52	21.560	-32.536	-10.976	0.29596	0.50024	0.42322	0.69495	23.2	13111	100
2025-5-25 9:59:34.246	WT901BLE68(801231B9234C)	-0.217	1.495	0.174	-19.226	-21.606	-100.769	77.78	-24.90	116.82	21.560	-32.536	-10.976	0.29596	0.50024	0.42322	0.69495	23.2	13111	100
2025-5-25 9:59:34.246	WT901BLE68(801231B9234C)	-0.372	1.355	0.152	-32.043	12.695	-134.094	77.01	-22.20	117.51	21.560	-32.536	-10.976	0.29596	0.50024	0.42322	0.69495	23.2	13111	100
2025-5-25 9:59:34.291	WT901BLE68(801231B9234C)	-0.378	1.222	0.151	-36.865	29.480	-156.311	76.01	-18.87	118.48	21.560	-32.536	-10.976	0.29596	0.50024	0.42322	0.69495	23.2	13111	100
2025-5-25 9:59:34.291	WT901BLE68(801231B9234C)	-0.419	1.294	0.135	-37.170	31.067	-168.030	75.04	-15.24	119.41	21.560	-32.536	-10.976	0.29596	0.50024	0.42322	0.69495	23.2	13111	100
2025-5-25 9:59:34.333	WT901BLE68(801231B9234C)	-0.448	1.295	0.124	-38.574	15.625	-173.401	74.16	-11.49	119.98	11.858	-42.238	-1.666	0.29596	0.50024	0.42322	0.69495	23.2	13111	100
2025-5-25 9:59:34.333	WT901BLE68(801231B9234C)	-0.423	1.339	0.117	-38.147	-20.142	-172.607	73.47	-7.89	119.78	11.858	-42.238	-1.666	0.29596	0.50024	0.42322	0.69495	23.2	13111	100
2025-5-25 9:59:34.381	WT901BLE68(801231B9234C)	-0.316	1.405	0.103	-39.185	-68.176	-164.673	72.91	-4.64	118.37	11.858	-42.238	-1.666	0.29596	0.50024	0.42322	0.69495	23.2	13111	100
2025-5-25 9:59:34.381	WT901BLE68(801231B9234C)	-0.218	1.371	0.107	-43.762	-102.722	-159.851	72.36	-1.85	115.74	11.858	-42.238	-1.666	0.29596	0.50024	0.42322	0.69495	23.2	13111	100
2025-5-25 9:59:34.468	WT901BLE68(801231B9234C)	-0.162	1.289	0.091	-49.072	-117.737	-163.086	71.63	0.74	112.42	11.858	-42.238	-1.666	0.29596	0.50024	0.42322	0.69495	23.2	13111	100
2025-5-25 9:59:34.468	WT901BLE68(801231B9234C)	-0.125	1.206	0.054	-52.002	-115.601	-169.128	70.71	3.29	108.86	11.858	-42.238	-1.666	0.29596	0.50024	0.42322	0.69495	23.2	13111	100
2025-5-25 9:59:34.469	WT901BLE68(801231B9234C)	-0.097	1.135	0.036	-54.688	-103.577	-174.622	69.60	5.89	105.34	11.858	-42.238	-1.666	0.29596	0.50024	0.42322	0.69495	23.2	13111	100
2025-5-25 9:59:34.469	WT901BLE68(801231B9234C)	-0.086	1.076	0.029	-56.702	-86.853	-181.396	68.33	8.60	101.98	11.858	-42.238	-1.666	0.29596	0.50024	0.42322	0.69495	23.2	13111	100
2025-5-25 9:59:34.522	WT901BLE68(801231B9234C)	-0.075	1.031	0.014	-58.289	-70.007	-186.890	66.92	11.44	98.81	11.858	-42.238	-1.666	0.29596	0.50024	0.42322	0.69495	23.2	13111	100
2025-5-25 9:59:34.522	WT901BLE68(801231B9234C)	-0.086	1.009	0.019	-59.387	-54.199	-189.697	65.40	14.34	95.81	11.858	-42.238	-1.666	0.29596	0.50024	0.42322	0.69495	23.2	13111	100
2025-5-25 9:59:34.538	WT901BLE68(801231B9234C)	-0.099	1.011	0.015	-59.998	-41.687	-188.965	63.78	17.26	92.97	11.858	-42.238	-1.666	0.65070	0.26230	0.46555	0.53940	23.2	13111	100
2025-5-25 9:59:34.539	WT901BLE68(801231B9234C)	-0.104	0.994	0.016	-59.448	-32.104	-183.411	62.09	20.09	90.27	11.858	-42.238	-1.666	0.65070	0.26230	0.46555	0.53940	23.2	13111	100
2025-5-25 9:59:34.581	WT901BLE68(801231B9234C)	-0.107	0.964	0.017	-57.556	-26.062	-173.645	60.37	22.74	87.67	11.858	-42.238	-1.666	0.65070	0.26230	0.46555	0.53940	23.2	13111	100
2025-5-25 9:59:34.581	WT901BLE68(801231B9234C)	-0.096	0.897	0.023	-54.871	-20.203	-161.499	58.66	25.15	85.20	11.858	-42.238	-1.666	0.65070	0.26230	0.46555	0.53940	23.2	13111	100
2025-5-25 9:59:34.625	WT901BLE68(801231B9234C)	-0.087	0.839	0.019	-53.589	-20.935	-144.958	56.89	27.26	82.80	11.858	-42.238	-1.666	0.65070	0.26230	0.46555	0.53940	23.2	13111	100
2025-5-25 9:59:34.625	WT901BLE68(801231B9234C)	-0.093	0.798	0.032	-47.791	-6.531	-131.226	55.38	29.12	80.76	11.858	-42.238	-1.666	0.65070	0.26230	0.46555	0.53940	23.2	13111	100
2025-5-25 9:59:34.650	WT901BLE68(801231B9234C)	-0.085	0.794	0.027	-41.626	3.052	-107.910	54.12	30.73	79.07	11.858	-42.238	-1.666	0.65070	0.26230	0.46555	0.53940	23.2	13111	100
2025-5-25 9:59:34.651	WT901BLE68(801231B9234C)	-0.085	0.777	0.022	-36.011	15.198	-83.740	53.21	32.04	77.90	11.858	-42.238	-1.666	0.65070	0.26230	0.46555	0.53940	23.2	13111	100
2025-5-25 9:59:34.696	WT901BLE68(801231B9234C)	-0.080	0.736	0.021	-28.625	24.475	-53.589	52.66	33.02	77.26	11.858	-42.238	-1.666	0.65070	0.26230	0.46555	0.53940	23.2	13111	100
2025-5-25 9:59:34.696	WT901BLE68(801231B9234C)	-0.117	0.707	0.040	-18.799	36.438	-20.691	52.65	33.61	77.29	11.858	-42.238	-1.666	0.65070	0.26230	0.46555	0.53940	23.2	13111	100
2025-5-25 9:59:34.739	WT901BLE68(801231B9234C)	-0.135	0.779	0.051	-8.850	44.617	16.235	53.25	33.74	78.04	35.574	-6.566	-17.542	0.65070	0.26230	0.46555	0.53940	23.2	13111	100
2025-5-25 9:59:34.739	WT901BLE68(801231B9234C)	-0.135	0.897	0.027	1.831	53.711	62.317	54.46	33.25	79.54	35.574	-6.566	-17.542	0.65070	0.26230	0.46555	0.53940	23.2	13111	100
2025-5-25 9:59:34.784	WT901BLE68(801231B9234C)	-0.148	0.962	-0.004	17.822	67.566	112.671	56.35	32.06	81.85	35.574	-6.566	-17.542	0.65070	0.26230	0.46555	0.53940	23.2	13111	100
2025-5-25 9:59:34.785	WT901BLE68(801231B9234C)	-0.140	0.880	0.018	37.170	98.267	156.738	59.01	30.25	85.09	35.574	-6.566	-17.542	0.65070	0.26230	0.46555	0.53940	23.2	13111	100
2025-5-25 9:59:34.808	WT901BLE68(801231B9234C)	-0.210	0.860	0.058	59.692	141.846	189.758	62.44	28.06	89.31	35.574	-6.566	-17.542	0.65070	0.26230	0.46555	0.53940	23.2	13111	100
2025-5-25 9:59:34.808	WT901BLE68(801231B9234C)	-0.352	0.976	0.159	69.153	176.147	206.970	66.31	25.57	94.30	35.574	-6.566	-17.542	0.65070	0.26230	0.46555	0.53940	23.2	13111	100
2025-5-25 9:59:34.873	WT901BLE68(801231B9234C)	-0.498	1.187	0.244	63.049	165.527	211.853	69.91	22.69	99.21	35.574	-6.566	-17.542	0.65070	0.26230	0.46555	0.53940	23.2	13111	100
2025-5-25 9:59:34.873	WT901BLE68(801231B9234C)	-0.579	1.440	0.249	38.574	102.051	202.881	72.42	19.44	102.90	35.574	-6.566	-17.542	0.65070	0.26230	0.46555	0.53940	23.2	13111	100
2025-5-25 9:59:34.898	WT901BLE68(801231B9234C)	-0.454	1.599	0.088	17.517	11.292	192.017	73.62	15.88	104.64	35.574	-6.566	-17.542	0.65070	0.26230	0.46555	0.53940	23.2	13111	100
2025-5-25 9:59:34.898	WT901BLE68(801231B9234C)	-0.328	1.565	-0.112	13.245	-52.490	194.092	74.16	12.05	104.78	35.574	-6.566	-17.542	0.65070	0.26230	0.46555	0.53940	23.2	13111	100
2025-5-25 9:59:34.942	WT901BLE68(801231B9234C)	-0.263	1.382	-0.124	16.296	-80.750	207.947	74.54	7.77	104.10	35.574	-6.566	-17.542	0.65070	0.26230	0.46555	0.53940	23.2	13111	100
2025-5-25 9:59:34.942	WT901BLE68(801231B9234C)	-0.190	1.193	0.051	22.034	-71.472	203.918	75.09	3.49	103.36	35.574	-6.566	-17.542	0.50192	0.36407	0.49338	0.60989	23.2	13111	100
2025-5-25 9:59:34.987	WT901BLE68(801231B9234C)	-0.140	1.052	0.188	29.785	-41.809	181.396	75.82	-0.33	102.94	35.574	-6.566	-17.542	0.50192	0.36407	0.49338	0.60989	23.2	13111	100
2025-5-25 9:59:34.987	WT901BLE68(801231B9234C)	-0.169	0.972	0.203	32.349	-4.211	157.288	76.59	-3.53	103.03	35.574	-6.566	-17.542	0.50192	0.36407	0.49338	0.60989	23.2	13111	100
2025-5-25 9:59:35.11	WT901BLE68(801231B9234C)	-0.236	0.966	0.166	34.241	34.119	135.376	77.30	-6.01	103.75	35.574	-6.566	-17.542	0.50192	0.36407	0.49338	0.60989	23.2	13111	100
2025-5-25 9:59:35.11	WT901BLE68(801231B9234C)	-0.329	0.994	0.087	34.790	56.824	122.742	77.93	-8.08	104.97	35.574	-6.566	-17.542	0.50192	0.36407	0.49338	0.60989	23.2	13111	100
2025-5-25 9:59:35.54	WT901BLE68(801231B9234C)	-0.388	1.040	0.050	33.447	67.139	116.272	78.45	-9.92	106.40	35.574	-6.566	-17.542	0.50192	0.36407	0.49338	0.60989	23.2	13111	100
2025-5-25 9:59:35.54	WT901BLE68(801231B9234C)	-0.386	1.036	0.040	32.166	57.434	113.159	78.92	-11.65	107.73	35.574	-6.566	-17.542	0.50192	0.36407	0.49338	0.60989	23.2	13111	100
2025-5-25 9:59:35.100	WT901BLE68(801231B9234C)	-0.364	1.017	0.069	31.555	40.039	113.159	79.40	-13.39	108.73	35.574	-6.566	-17.542	0.50192	0.36407	0.49338	0.60989	23.2	13111	100
2025-5-25 9:59:35.101	WT901BLE68(801231B9234C)	-0.337	0.994	0.087	31.555	28.870	112.427	79.91	-15.16	109.43	35.574	-6.566	-17.542	0.50192	0.36407	0.49338	0.60989	23.2	13111	100
2025-5-25 9:59:35.144	WT901BLE68(801231B9234C)	-0.346	0.943	0.126	32.288	31.433	111.084	80.40	-16.89	110.15	35.574	-6.566	-17.542	0.50192	0.36407	0.49338	0.60989	23.2	13111	100
2025-5-25 9:59:35.145	WT901BLE68(801231B9234C)	-0.399	0.909	0.168	33.447	36.255	107.727	80.79	-18.52	111.17	16.170	-40.474	-2.156	0.50192	0.36407	0.49338	0.60989	23.2	13111	100
2025-5-25 9:59:35.212	WT901BLE68(801231B9234C)	-0.499	0.938	0.214	31.494	35.278	103.821	80.96	-20.06	112.66	16.170	-40.474	-2.156	0.50192	0.36407	0.49338	0.60989	23.2	13111	100
2025-5-25 9:59:35.212	WT901BLE68(801231B9234C)	-0.535	0.985	0.235	27.222	24.353	95.764	80.90	-21.55	114.46	16.170	-40.474	-2.156	0.50192	0.36407	0.49338	0.60989	23.2	13111	100
2025-5-25 9:59:35.213	WT901BLE68(801231B9234C)	-0.563	1.022	0.245	21.240	7.202	89.417	80.74	-22.97	116.14	16.170	-40.474	-2.156	0.50192	0.36407	0.49338	0.60989	23.2	13111	100
2025-5-25 9:59:35.213	WT901BLE68(801231B9234C)	-0.603	1.060	0.238	15.747	-2.380	74.524	80.52	-24.23	117.59	16.170	-40.474	-2.156	0.50192	0.36407	0.49338	0.60989	23.2	13111	100
2025-5-25 9:59:35.257	WT901BLE68(801231B9234C)	-0.638	1.110	0.248	10.254	-4.700	49.500	80.20	-25.10	118.94	16.170	-40.474	-2.156	0.50192	0.36407	0.49338	0.60989	23.2	13111	100
2025-5-25 9:59:35.257	WT901BLE68(801231B9234C)	-0.586	1.237	0.246	4.761	-9.277	12.390	79.83	-25.33	120.15	16.170	-40.474	-2.156	0.50192	0.36407	0.49338	0.60989	23.2	13111	100
2025-5-25 9:59:35.303	WT901BLE68(801231B9234C)	-0.489	1.406	0.248	-0.488	-21.118	-25.574	79.50	-24.84	121.01	16.170	-40.474	-2.156	0.50192	0.36407	0.49338	0.60989	23.2	13111	100
2025-5-25 9:59:35.303	WT901BLE68(801231B9234C)	-0.351	1.534	0.228	-10.132	-37.415	-65.247	79.22	-23.64	121.39	16.170	-40.474	-2.156	0.50192	0.36407	0.49338	0.60989	23.2	13111	100
2025-5-25 9:59:35.347	WT901BLE68(801231B9234C)	-0.316	1.405	0.165	-20.691	-38.879	-97.717	78.89	-21.80	121.44	16.170	-40.474	-2.156	0.50192	0.36407	0.49338	0.60989	23.2	13111	100
2025-5-25 9:59:35.347	WT901BLE68(801231B9234C)	-0.345	1.222	0.151	-28.076	-29.236	-125.671	78.38	-19.35	121.46	16.170	-40.474	-2.156	0.27588	0.42239	0.48077	0.71707	23.2	13111	100
2025-5-25 9:59:35.393	WT901BLE68(801231B9234C)	-0.355	1.167	0.149	-31.250	-30.823	-146.240	77.79	-16.44	121.45	16.170	-40.474	-2.156	0.27588	0.42239	0.48077	0.71707	23.2	13111	100
2025-5-25 9:59:35.393	WT901BLE68(801231B9234C)	-0.365	1.206	0.153	-35.889	-45.532	-159.241	77.21	-13.28	121.07	16.170	-40.474	-2.156	0.27588	0.42239	0.48077	0.71707	23.2	13111	100
2025-5-25 9:59:35.423	WT901BLE68(801231B9234C)	-0.369	1.243	0.172	-41.748	-70.007	-166.748	76.60	-10.05	120.15	16.170	-40.474	-2.156	0.27588	0.42239	0.48077	0.71707	23.2	13111	100
2025-5-25 9:59:35.423	WT901BLE68(801231B9234C)	-0.345	1.331	0.171	-49.500	-97.168	-167.847	75.91	-6.90	118.54	16.170	-40.474	-2.156	0.27588	0.42239	0.48077	0.71707	23.2	13111	100
2025-5-25 9:59:35.459	WT901BLE68(801231B9234C)	-0.263	1.425	0.143	-59.631	-120.911	-163.086	75.05	-3.96	116.13	16.170	-40.474	-2.156	0.27588	0.42239	0.48077	0.71707	23.2	13111	100
2025-5-25 9:59:35.459	WT901BLE68(801231B9234C)	-0.178	1.440	0.105	-70.251	-130.920	-157.288	73.97	-1.30	112.99	16.170	-40.474	-2.156	0.27588	0.42239	0.48077	0.71707	23.2	13111	100
2025-5-25 9:59:35.506	WT901BLE68(801231B9234C)	-0.113	1.389	0.053	-78.796	-123.840	-153.442	72.62	1.12	109.53	16.170	-40.474	-2.156	0.27588	0.42239	0.48077	0.71707	23.2	13111	100
2025-5-25 9:59:35.507	WT901BLE68(801231B9234C)	-0.064	1.337	0.012	-84.656	-103.088	-152.222	71.05	3.46	106.18	16.170	-40.474	-2.156	0.27588	0.42239	0.48077	0.71707	23.2	13111	100
2025-5-25 9:59:35.549	WT901BLE68(801231B9234C)	-0.050	1.277	0.007	-88.379	-72.021	-155.334	69.31	5.84	103.22	16.170	-40.474	-2.156	0.27588	0.42239	0.48077	0.71707	23.2	13111	100
2025-5-25 9:59:35.549	WT901BLE68(801231B9234C)	-0.050	1.226	0.023	-90.393	-40.833	-162.476	67.48	8.43	100.70	22.344	-34.692	-8.624	0.27588	0.42239	0.48077	0.71707	23.2	13111	100
2025-5-25 9:59:35.596	WT901BLE68(801231B9234C)	-0.062	1.171	0.011	-91.248	-10.803	-171.326	65.61	11.28	98.57	22.344	-34.692	-8.624	0.27588	0.42239	0.48077	0.71707	23.2	13111	100
2025-5-25 9:59:35.596	WT901BLE68(801231B9234C)	-0.091	1.117	-0.008	-89.783	14.893	-177.673	63.74	14.39	96.80	22.344	-34.692	-8.624	0.27588	0.42239	0.48077	0.71707	23.2	13111	100
2025-5-25 9:59:35.623	WT901BLE68(801231B9234C)	-0.118	1.060	-0.016	-86.426	33.264	-181.091	61.93	17.67	95.27	22.344	-34.692	-8.624	0.27588	0.42239	0.48077	0.71707	23.2	13111	100
2025-5-25 9:59:35.623	WT901BLE68(801231B9234C)	-0.134	0.996	-0.003	-82.397	40.344	-183.044	60.17	21.03	93.81	22.344	-34.692	-8.624	0.27588	0.42239	0.48077	0.71707	23.2	13111	100
2025-5-25 9:59:35.683	WT901BLE68(801231B9234C)	-0.154	0.930	-0.004	-76.904	38.086	-180.298	58.39	24.30	92.24	22.344	-34.692	-8.624	0.27588	0.42239	0.48077	0.71707	23.2	13111	100
2025-5-25 9:59:35.683	WT901BLE68(801231B9234C)	-0.172	0.888	0.010	-70.862	31.250	-175.842	56.64	27.39	90.53	22.344	-34.692	-8.624	0.27588	0.42239	0.48077	0.71707	23.2	13111	100
2025-5-25 9:59:35.709	WT901BLE68(801231B9234C)	-0.140	0.854	0.024	-68.359	16.235	-166.077	54.80	30.15	88.57	22.344	-34.692	-8.624	0.27588	0.42239	0.48077	0.71707	23.2	13111	100
2025-5-25 9:59:35.709	WT901BLE68(801231B9234C)	-0.110	0.822	0.009	-63.660	2.014	-148.743	52.81	32.40	86.34	22.344	-34.692	-8.624	0.27588	0.42239	0.48077	0.71707	23.2	13111	100
2025-5-25 9:59:35.752	WT901BLE68(801231B9234C)	-0.078	0.808	0.017	-60.486	-3.479	-130.920	50.87	34.23	84.15	22.344	-34.692	-8.624	0.27588	0.42239	0.48077	0.71707	23.2	13111	100
2025-5-25 9:59:35.752	WT901BLE68(801231B9234C)	-0.021	0.771	0.011	-59.814	-0.305	-109.375	49.11	35.66	82.22	22.344	-34.692	-8.624	0.73520	0.12158	0.46936	0.47357	23.2	13111	100
2025-5-25 9:59:35.775	WT901BLE68(801231B9234C)	-0.031	0.698	0.011	-47.302	15.808	-77.148	47.77	36.75	80.85	22.344	-34.692	-8.624	0.73520	0.12158	0.46936	0.47357	23.2	13111	100
2025-5-25 9:59:35.776	WT901BLE68(801231B9234C)	-0.076	0.676	0.033	-35.645	37.659	-45.776	47.22	37.62	80.40	22.344	-34.692	-8.624	0.73520	0.12158	0.46936	0.47357	23.2	13111	100
2025-5-25 9:59:35.823	WT901BLE68(801231B9234C)	-0.096	0.741	0.030	-23.193	54.382	-3.540	47.51	38.17	80.93	22.344	-34.692	-8.624	0.73520	0.12158	0.46936	0.47357	23.2	13111	100
2025-5-25 9:59:35.823	WT901BLE68(801231B9234C)	-0.150	0.841	0.005	-7.874	68.359	49.377	48.73	38.17	82.55	22.344	-34.692	-8.624	0.73520	0.12158	0.46936	0.47357	23.2	13111	100
2025-5-25 9:59:35.886	WT901BLE68(801231B9234C)	-0.221	0.874	0.035	9.155	83.313	103.699	50.98	37.46	85.33	22.344	-34.692	-8.624	0.73520	0.12158	0.46936	0.47357	23.2	13111	100
2025-5-25 9:59:35.886	WT901BLE68(801231B9234C)	-0.289	0.803	0.118	24.170	88.562	151.123	53.99	36.00	88.95	22.344	-34.692	-8.624	0.73520	0.12158	0.46936	0.47357	23.2	13111	100
2025-5-25 9:59:35.911	WT901BLE68(801231B9234C)	-0.286	0.806	0.178	31.067	76.416	187.195	57.18	33.65	92.77	22.344	-34.692	-8.624	0.73520	0.12158	0.46936	0.47357	23.2	13111	100
2025-5-25 9:59:35.911	WT901BLE68(801231B9234C)	-0.268	0.874	0.209	33.936	54.321	212.341	60.06	30.50	96.24	22.344	-34.692	-8.624	0.73520	0.12158	0.46936	0.47357	23.2	13111	100
2025-5-25 9:59:35.954	WT901BLE68(801231B9234C)	-0.244	1.012	0.239	35.461	33.020	226.807	62.48	26.74	99.15	22.344	-34.692	-8.624	0.73520	0.12158	0.46936	0.47357	23.2	13111	100
2025-5-25 9:59:35.954	WT901BLE68(801231B9234C)	-0.244	1.260	0.246	36.560	14.465	234.497	64.46	22.59	101.48	39.886	-7.644	-11.662	0.73520	0.12158	0.46936	0.47357	23.2	13111	100
2025-5-25 9:59:35.978	WT901BLE68(801231B9234C)	-0.224	1.604	0.209	38.940	5.554	233.521	66.15	18.24	103.36	39.886	-7.644	-11.662	0.73520	0.12158	0.46936	0.47357	23.2	13111	100
2025-5-25 9:59:35.978	WT901BLE68(801231B9234C)	-0.207	1.731	0.159	30.640	-5.432	225.159	67.43	13.93	104.79	39.886	-7.644	-11.662	0.73520	0.12158	0.46936	0.47357	23.2	13111	100
2025-5-25 9:59:36.23	WT901BLE68(801231B9234C)	-0.182	1.580	0.141	28.198	10.681	213.318	68.51	9.83	106.14	39.886	-7.644	-11.662	0.73520	0.12158	0.46936	0.47357	23.2	13111	100
2025-5-25 9:59:36.23	WT901BLE68(801231B9234C)	-0.165	1.361	0.148	24.231	32.532	198.181	69.42	6.15	107.65	39.886	-7.644	-11.662	0.73520	0.12158	0.46936	0.47357	23.2	13111	100
2025-5-25 9:59:36.67	WT901BLE68(801231B9234C)	-0.154	1.269	0.201	14.771	62.500	169.434	70.11	3.09	109.47	39.886	-7.644	-11.662	0.73520	0.12158	0.46936	0.47357	23.2	13111	100
2025-5-25 9:59:36.67	WT901BLE68(801231B9234C)	-0.187	1.177	0.156	8.545	88.257	132.935	70.54	0.88	111.56	39.886	-7.644	-11.662	0.73520	0.12158	0.46936	0.47357	23.2	13111	100
2025-5-25 9:59:36.122	WT901BLE68(801231B9234C)	-0.163	1.203	0.046	1.038	102.295	98.755	70.77	-0.51	113.71	39.886	-7.644	-11.662	0.73520	0.12158	0.46936	0.47357	23.2	13111	100
2025-5-25 9:59:36.122	WT901BLE68(801231B9234C)	-0.251	1.166	0.000	-3.784	121.460	76.904	70.85	-1.33	115.99	39.886	-7.644	-11.662	0.73520	0.12158	0.46936	0.47357	23.2	13111	100
2025-5-25 9:59:36.156	WT901BLE68(801231B9234C)	-0.283	1.113	0.005	-8.118	134.155	58.899	70.80	-1.64	118.44	39.886	-7.644	-11.662	0.73520	0.12158	0.46936	0.47357	23.2	13111	100
2025-5-25 9:59:36.157	WT901BLE68(801231B9234C)	-0.303	1.047	-0.013	-13.245	128.357	57.434	70.66	-1.80	120.83	39.886	-7.644	-11.662	0.38715	0.29953	0.49884	0.71515	23.2	13111	100
2025-5-25 9:59:36.181	WT901BLE68(801231B9234C)	-0.340	0.979	-0.024	-17.700	120.178	63.416	70.44	-2.07	123.10	39.886	-7.644	-11.662	0.38715	0.29953	0.49884	0.71515	23.2	13111	100
2025-5-25 9:59:36.181	WT901BLE68(801231B9234C)	-0.339	0.970	-0.032	-21.118	112.488	80.872	70.15	-2.60	125.28	39.886	-7.644	-11.662	0.38715	0.29953	0.49884	0.71515	23.2	13111	100
2025-5-25 9:59:36.223	WT901BLE68(801231B9234C)	-0.363	0.931	-0.038	-22.705	109.436	104.858	69.80	-3.55	127.51	39.886	-7.644	-11.662	0.38715	0.29953	0.49884	0.71515	23.2	13111	100
2025-5-25 9:59:36.223	WT901BLE68(801231B9234C)	-0.345	0.925	-0.033	-23.560	113.037	124.817	69.38	-4.88	129.94	39.886	-7.644	-11.662	0.38715	0.29953	0.49884	0.71515	23.2	13111	100
2025-5-25 9:59:36.269	WT901BLE68(801231B9234C)	-0.301	0.947	-0.028	-24.597	120.483	142.578	68.87	-6.45	132.59	39.886	-7.644	-11.662	0.38715	0.29953	0.49884	0.71515	23.2	13111	100
2025-5-25 9:59:36.269	WT901BLE68(801231B9234C)	-0.354	0.939	-0.029	-23.926	135.315	152.405	68.23	-8.15	135.60	39.886	-7.644	-11.662	0.38715	0.29953	0.49884	0.71515	23.2	13111	100
2025-5-25 9:59:36.322	WT901BLE68(801231B9234C)	-0.500	0.993	-0.071	-14.832	155.823	151.917	67.57	-9.69	139.00	39.886	-7.644	-11.662	0.38715	0.29953	0.49884	0.71515	23.2	13111	100
2025-5-25 9:59:36.322	WT901BLE68(801231B9234C)	-0.737	1.271	-0.059	-4.456	154.541	155.396	67.00	-11.13	142.62	39.886	-7.644	-11.662	0.38715	0.29953	0.49884	0.71515	23.2	13111	100
2025-5-25 9:59:36.338	WT901BLE68(801231B9234C)	-0.923	1.461	-0.019	-2.747	122.925	143.982	66.52	-12.60	145.91	39.886	-7.644	-11.662	0.38715	0.29953	0.49884	0.71515	23.2	13111	100
2025-5-25 9:59:36.338	WT901BLE68(801231B9234C)	-0.898	1.260	-0.034	-1.831	72.510	119.690	66.14	-13.87	148.45	19.796	-41.748	5.488	0.38715	0.29953	0.49884	0.71515	23.2	13111	100
2025-5-25 9:59:36.381	WT901BLE68(801231B9234C)	-0.729	1.076	-0.104	2.380	29.358	89.172	65.86	-14.87	150.41	19.796	-41.748	5.488	0.38715	0.29953	0.49884	0.71515	23.2	13111	100
2025-5-25 9:59:36.381	WT901BLE68(801231B9234C)	-0.417	0.912	-0.012	13.245	3.113	37.720	65.79	-15.27	151.88	19.796	-41.748	5.488	0.38715	0.29953	0.49884	0.71515	23.2	13111	100
2025-5-25 9:59:36.426	WT901BLE68(801231B9234C)	-0.267	0.791	0.071	25.940	-38.025	-18.311	66.21	-14.91	152.30	19.796	-41.748	5.488	0.38715	0.29953	0.49884	0.71515	23.2	13111	100
2025-5-25 9:59:36.426	WT901BLE68(801231B9234C)	-0.328	0.819	0.100	38.330	-66.101	-77.881	67.19	-13.75	151.53	19.796	-41.748	5.488	0.38715	0.29953	0.49884	0.71515	23.2	13111	100
2025-5-25 9:59:36.471	WT901BLE68(801231B9234C)	-0.409	0.980	0.143	37.781	-67.688	-120.056	68.39	-11.74	150.15	19.796	-41.748	5.488	0.38715	0.29953	0.49884	0.71515	23.2	13111	100
2025-5-25 9:59:36.472	WT901BLE68(801231B9234C)	-0.429	1.102	0.127	29.114	-56.702	-135.254	69.43	-9.24	148.72	19.796	-41.748	5.488	0.38715	0.29953	0.49884	0.71515	23.2	13111	100
2025-5-25 9:59:36.522	WT901BLE68(801231B9234C)	-0.370	1.150	0.125	19.165	-55.298	-130.615	70.17	-6.66	147.30	19.796	-41.748	5.488	0.38715	0.29953	0.49884	0.71515	23.2	13111	100
2025-5-25 9:59:36.522	WT901BLE68(801231B9234C)	-0.308	1.150	0.115	13.062	-49.500	-124.634	70.72	-4.23	145.92	19.796	-41.748	5.488	0.38715	0.29953	0.49884	0.71515	23.2	13111	100
2025-5-25 9:59:36.542	WT901BLE68(801231B9234C)	-0.310	1.139	0.116	10.071	-53.040	-124.878	71.15	-1.86	144.44	19.796	-41.748	5.488	0.38715	0.29953	0.49884	0.71515	23.2	13111	100
2025-5-25 9:59:36.542	WT901BLE68(801231B9234C)	-0.269	1.145	0.150	5.920	-66.589	-133.240	71.47	0.51	142.59	19.796	-41.748	5.488	0.26544	0.18765	0.55750	0.76382	23.2	13111	100
2025-5-25 9:59:36.585	WT901BLE68(801231B9234C)	-0.169	1.137	0.188	0.671	-79.468	-138.306	71.63	2.85	140.31	19.796	-41.748	5.488	0.26544	0.18765	0.55750	0.76382	23.2	13111	100
2025-5-25 9:59:36.586	WT901BLE68(801231B9234C)	-0.112	1.126	0.211	-5.798	-78.430	-151.489	71.58	5.30	137.82	19.796	-41.748	5.488	0.26544	0.18765	0.55750	0.76382	23.2	13111	100
2025-5-25 9:59:36.628	WT901BLE68(801231B9234C)	-0.098	1.124	0.219	-14.648	-58.960	-156.677	71.26	7.95	135.42	19.796	-41.748	5.488	0.26544	0.18765	0.55750	0.76382	23.2	13111	100
2025-5-25 9:59:36.629	WT901BLE68(801231B9234C)	-0.123	1.131	0.198	-21.606	-33.203	-160.278	70.73	10.74	133.36	19.796	-41.748	5.488	0.26544	0.18765	0.55750	0.76382	23.2	13111	100
2025-5-25 9:59:36.674	WT901BLE68(801231B9234C)	-0.147	1.165	0.218	-30.212	-12.878	-157.410	70.03	13.61	131.68	19.796	-41.748	5.488	0.26544	0.18765	0.55750	0.76382	23.2	13111	100
2025-5-25 9:59:36.674	WT901BLE68(801231B9234C)	-0.164	1.148	0.203	-36.987	-1.038	-151.184	69.18	16.39	130.24	19.796	-41.748	5.488	0.26544	0.18765	0.55750	0.76382	23.2	13111	100
2025-5-25 9:59:36.722	WT901BLE68(801231B9234C)	-0.130	1.147	0.194	-43.213	-1.282	-145.935	68.16	19.03	128.83	19.796	-41.748	5.488	0.26544	0.18765	0.55750	0.76382	23.2	13111	100
2025-5-25 9:59:36.722	WT901BLE68(801231B9234C)	-0.158	1.167	0.189	-46.875	-2.686	-137.756	67.00	21.46	127.36	19.796	-41.748	5.488	0.26544	0.18765	0.55750	0.76382	23.2	13111	100
2025-5-25 9:59:36.742	WT901BLE68(801231B9234C)	-0.132	1.199	0.185	-49.133	-4.517	-130.371	65.71	23.69	125.81	19.796	-41.748	5.488	0.26544	0.18765	0.55750	0.76382	23.2	13111	100
2025-5-25 9:59:36.742	WT901BLE68(801231B9234C)	-0.131	1.264	0.159	-49.744	-7.507	-115.540	64.36	25.62	124.25	39.004	-25.970	-1.862	0.26544	0.18765	0.55750	0.76382	23.2	13111	100
2025-5-25 9:59:36.786	WT901BLE68(801231B9234C)	-0.112	1.284	0.128	-51.086	-3.967	-107.361	63.00	27.30	122.72	39.004	-25.970	-1.862	0.26544	0.18765	0.55750	0.76382	23.2	13111	100
2025-5-25 9:59:36.787	WT901BLE68(801231B9234C)	-0.066	1.234	0.125	-47.974	4.150	-96.191	61.72	28.80	121.37	39.004	-25.970	-1.862	0.26544	0.18765	0.55750	0.76382	23.2	13111	100
2025-5-25 9:59:36.831	WT901BLE68(801231B9234C)	-0.132	1.150	0.118	-43.152	21.606	-83.679	60.68	30.15	120.36	39.004	-25.970	-1.862	0.26544	0.18765	0.55750	0.76382	23.2	13111	100
2025-5-25 9:59:36.831	WT901BLE68(801231B9234C)	-0.125	1.132	0.112	-35.278	30.640	-84.595	59.89	31.52	119.64	39.004	-25.970	-1.862	0.26544	0.18765	0.55750	0.76382	23.2	13111	100
2025-5-25 9:59:36.876	WT901BLE68(801231B9234C)	-0.132	1.013	0.121	-33.203	28.748	-75.256	59.16	32.83	118.93	39.004	-25.970	-1.862	0.26544	0.18765	0.55750	0.76382	23.2	13111	100
2025-5-25 9:59:36.876	WT901BLE68(801231B9234C)	-0.138	0.965	0.100	-27.344	25.391	-66.711	58.58	33.94	118.26	39.004	-25.970	-1.862	0.26544	0.18765	0.55750	0.76382	23.2	13111	100
2025-5-25 9:59:36.923	WT901BLE68(801231B9234C)	-0.150	0.839	0.096	-20.508	20.874	-57.556	58.19	34.83	117.66	39.004	-25.970	-1.862	0.26544	0.18765	0.55750	0.76382	23.2	13111	100
2025-5-25 9:59:36.923	WT901BLE68(801231B9234C)	-0.150	0.731	0.089	-13.611	8.362	-45.227	57.85	35.45	116.97	39.004	-25.970	-1.862	0.26544	0.18765	0.55750	0.76382	23.2	13111	100
2025-5-25 9:59:36.947	WT901BLE68(801231B9234C)	-0.132	0.708	0.087	-5.432	-0.488	-32.471	57.68	35.75	116.24	39.004	-25.970	-1.862	0.26544	0.18765	0.55750	0.76382	23.2	13111	100
2025-5-25 9:59:36.947	WT901BLE68(801231B9234C)	-0.119	0.682	0.081	2.441	-6.165	-15.869	57.68	35.71	115.55	39.004	-25.970	-1.862	0.56955	0.02686	0.53299	0.62506	23.2	13111	100
2025-5-25 9:59:36.988	WT901BLE68(801231B9234C)	-0.150	0.666	0.084	9.216	-6.897	2.869	57.93	35.34	115.05	39.004	-25.970	-1.862	0.56955	0.02686	0.53299	0.62506	23.2	13111	100
2025-5-25 9:59:36.989	WT901BLE68(801231B9234C)	-0.127	0.706	0.070	11.902	-6.897	23.254	58.42	34.65	114.80	39.004	-25.970	-1.862	0.56955	0.02686	0.53299	0.62506	23.2	13111	100
2025-5-25 9:59:37.33	WT901BLE68(801231B9234C)	-0.084	0.775	0.058	13.794	7.263	45.166	59.15	33.68	114.94	39.004	-25.970	-1.862	0.56955	0.02686	0.53299	0.62506	23.2	13111	100
2025-5-25 9:59:37.33	WT901BLE68(801231B9234C)	-0.061	0.844	0.032	12.451	42.847	64.758	60.31	32.63	115.89	39.004	-25.970	-1.862	0.56955	0.02686	0.53299	0.62506	23.2	13111	100
2025-5-25 9:59:37.79	WT901BLE68(801231B9234C)	-0.092	0.907	0.001	10.986	92.346	87.463	61.98	31.60	117.93	39.004	-25.970	-1.862	0.56955	0.02686	0.53299	0.62506	23.2	13111	100
2025-5-25 9:59:37.79	WT901BLE68(801231B9234C)	-0.098	0.975	-0.092	11.658	149.414	108.704	64.29	30.61	121.27	39.004	-25.970	-1.862	0.56955	0.02686	0.53299	0.62506	23.2	13111	100
2025-5-25 9:59:37.126	WT901BLE68(801231B9234C)	-0.293	0.473	-0.057	13.977	202.698	149.963	67.04	29.05	125.95	39.004	-25.970	-1.862	0.56955	0.02686	0.53299	0.62506	23.2	13111	100
2025-5-25 9:59:37.126	WT901BLE68(801231B9234C)	-0.491	0.920	-0.167	26.245	162.415	94.604	69.80	28.10	129.90	39.004	-25.970	-1.862	0.56955	0.02686	0.53299	0.62506	23.2	13111	100
2025-5-25 9:59:37.149	WT901BLE68(801231B9234C)	-0.675	1.321	-0.042	20.142	155.640	139.221	72.49	26.25	134.02	39.004	-25.970	-1.862	0.56955	0.02686	0.53299	0.62506	23.2	13111	100
2025-5-25 9:59:37.149	WT901BLE68(801231B9234C)	-0.472	1.084	0.100	-4.639	84.717	142.822	73.93	24.18	136.68	43.806	-17.444	6.272	0.56955	0.02686	0.53299	0.62506	23.2	13111	100
2025-5-25 9:59:37.192	WT901BLE68(801231B9234C)	-0.315	0.943	0.045	-19.531	18.860	120.728	74.41	21.70	137.85	43.806	-17.444	6.272	0.56955	0.02686	0.53299	0.62506	23.2	13111	100
2025-5-25 9:59:37.192	WT901BLE68(801231B9234C)	-0.184	1.094	0.003	-21.545	-4.150	121.033	74.39	19.39	138.11	43.806	-17.444	6.272	0.56955	0.02686	0.53299	0.62506	23.2	13111	100
2025-5-25 9:59:37.236	WT901BLE68(801231B9234C)	-0.311	1.165	0.064	-26.245	36.804	128.235	74.40	17.00	138.79	43.806	-17.444	6.272	0.56955	0.02686	0.53299	0.62506	23.2	13111	100
2025-5-25 9:59:37.236	WT901BLE68(801231B9234C)	-0.656	1.162	0.112	-20.020	90.759	130.859	74.66	14.82	140.59	43.806	-17.444	6.272	0.56955	0.02686	0.53299	0.62506	23.2	13111	100
2025-5-25 9:59:37.281	WT901BLE68(801231B9234C)	-0.292	1.123	0.133	-26.306	84.839	127.563	74.82	12.85	142.68	43.806	-17.444	6.272	0.56955	0.02686	0.53299	0.62506	23.2	13111	100
2025-5-25 9:59:37.281	WT901BLE68(801231B9234C)	-0.123	1.049	0.125	-28.564	54.321	142.822	74.73	10.55	144.35	43.806	-17.444	6.272	0.56955	0.02686	0.53299	0.62506	23.2	13111	100
2025-5-25 9:59:37.304	WT901BLE68(801231B9234C)	-0.359	1.060	0.122	-24.841	67.383	125.671	74.66	8.40	145.94	43.806	-17.444	6.272	0.56955	0.02686	0.53299	0.62506	23.2	13111	100
2025-5-25 9:59:37.304	WT901BLE68(801231B9234C)	-0.368	1.158	0.104	-27.893	68.115	104.248	74.54	6.70	147.60	43.806	-17.444	6.272	0.56955	0.02686	0.53299	0.62506	23.2	13111	100
2025-5-25 9:59:37.350	WT901BLE68(801231B9234C)	-0.351	1.114	0.076	-27.344	51.575	105.530	74.30	5.06	149.02	43.806	-17.444	6.272	0.56955	0.02686	0.53299	0.62506	23.2	13111	100
2025-5-25 9:59:37.350	WT901BLE68(801231B9234C)	-0.310	1.100	0.040	-28.320	33.447	98.511	73.98	3.48	150.10	43.806	-17.444	6.272	0.21350	0.13928	0.58795	0.76761	23.2	13111	100
2025-5-25 9:59:37.394	WT901BLE68(801231B9234C)	-0.265	1.045	0.038	-26.489	23.499	95.215	73.64	1.92	150.92	43.806	-17.444	6.272	0.21350	0.13928	0.58795	0.76761	23.2	13111	100
2025-5-25 9:59:37.394	WT901BLE68(801231B9234C)	-0.249	0.996	0.093	-22.156	23.682	90.027	73.33	0.46	151.69	43.806	-17.444	6.272	0.21350	0.13928	0.58795	0.76761	23.2	13111	100
2025-5-25 9:59:37.439	WT901BLE68(801231B9234C)	-0.263	0.983	0.112	-17.029	31.799	83.984	73.10	-0.85	152.55	43.806	-17.444	6.272	0.21350	0.13928	0.58795	0.76761	23.2	13111	100
2025-5-25 9:59:37.439	WT901BLE68(801231B9234C)	-0.290	0.928	0.126	-14.221	45.654	78.064	72.91	-1.94	153.64	43.806	-17.444	6.272	0.21350	0.13928	0.58795	0.76761	23.2	13111	100
2025-5-25 9:59:37.484	WT901BLE68(801231B9234C)	-0.336	0.889	0.160	-10.132	54.993	73.486	72.75	-2.85	154.97	43.806	-17.444	6.272	0.21350	0.13928	0.58795	0.76761	23.2	13111	100
2025-5-25 9:59:37.484	WT901BLE68(801231B9234C)	-0.427	0.865	0.185	-7.141	56.152	68.604	72.61	-3.63	156.41	43.806	-17.444	6.272	0.21350	0.13928	0.58795	0.76761	23.2	13111	100
2025-5-25 9:59:37.508	WT901BLE68(801231B9234C)	-0.480	0.891	0.194	-4.150	43.823	62.317	72.52	-4.32	157.73	43.806	-17.444	6.272	0.21350	0.13928	0.58795	0.76761	23.2	13111	100
2025-5-25 9:59:37.508	WT901BLE68(801231B9234C)	-0.475	0.889	0.186	-4.089	14.038	54.199	72.43	-4.95	158.60	43.806	-17.444	6.272	0.21350	0.13928	0.58795	0.76761	23.2	13111	100
2025-5-25 9:59:37.552	WT901BLE68(801231B9234C)	-0.455	0.854	0.185	-3.052	-13.977	41.992	72.41	-5.55	158.94	43.806	-17.444	6.272	0.21350	0.13928	0.58795	0.76761	23.2	13111	100
2025-5-25 9:59:37.552	WT901BLE68(801231B9234C)	-0.447	0.830	0.179	1.587	-39.978	26.245	72.49	-6.00	158.72	17.444	-43.708	18.032	0.21350	0.13928	0.58795	0.76761	23.2	13111	100
2025-5-25 9:59:37.596	WT901BLE68(801231B9234C)	-0.415	0.912	0.177	3.906	-65.002	5.493	72.67	-6.21	157.94	17.444	-43.708	18.032	0.21350	0.13928	0.58795	0.76761	23.2	13111	100
2025-5-25 9:59:37.597	WT901BLE68(801231B9234C)	-0.391	0.994	0.161	6.042	-84.900	-14.893	72.95	-6.13	156.65	17.444	-43.708	18.032	0.21350	0.13928	0.58795	0.76761	23.2	13111	100
2025-5-25 9:59:37.641	WT901BLE68(801231B9234C)	-0.359	1.058	0.152	4.333	-102.783	-37.415	73.28	-5.75	154.93	17.444	-43.708	18.032	0.21350	0.13928	0.58795	0.76761	23.2	13111	100
2025-5-25 9:59:37.641	WT901BLE68(801231B9234C)	-0.341	1.150	0.140	3.601	-117.554	-54.138	73.62	-5.11	152.79	17.444	-43.708	18.032	0.21350	0.13928	0.58795	0.76761	23.2	13111	100
2025-5-25 9:59:37.686	WT901BLE68(801231B9234C)	-0.303	1.199	0.134	0.488	-127.380	-69.946	73.92	-4.21	150.34	17.444	-43.708	18.032	0.21350	0.13928	0.58795	0.76761	23.2	13111	100
2025-5-25 9:59:37.687	WT901BLE68(801231B9234C)	-0.258	1.222	0.139	-3.784	-133.667	-82.764	74.11	-3.11	147.66	17.444	-43.708	18.032	0.21350	0.13928	0.58795	0.76761	23.2	13111	100
2025-5-25 9:59:37.711	WT901BLE68(801231B9234C)	-0.229	1.176	0.138	-10.498	-133.545	-96.558	74.16	-1.79	144.85	17.444	-43.708	18.032	0.21350	0.13928	0.58795	0.76761	23.2	13111	100
2025-5-25 9:59:37.711	WT901BLE68(801231B9234C)	-0.213	1.113	0.116	-18.066	-129.639	-109.253	73.99	-0.23	141.99	17.444	-43.708	18.032	0.21350	0.13928	0.58795	0.76761	23.2	13111	100
2025-5-25 9:59:37.753	WT901BLE68(801231B9234C)	-0.198	1.185	0.078	-23.804	-124.573	-113.770	73.63	1.46	139.11	17.444	-43.708	18.032	0.21350	0.13928	0.58795	0.76761	23.2	13111	100
2025-5-25 9:59:37.754	WT901BLE68(801231B9234C)	-0.180	1.264	0.050	-29.358	-116.821	-110.535	73.09	3.11	136.31	17.444	-43.708	18.032	0.32971	0.20721	0.55878	0.73212	23.2	13111	100
2025-5-25 9:59:37.798	WT901BLE68(801231B9234C)	-0.166	1.285	0.047	-33.813	-107.056	-105.225	72.42	4.66	133.62	17.444	-43.708	18.032	0.32971	0.20721	0.55878	0.73212	23.2	13111	100
2025-5-25 9:59:37.799	WT901BLE68(801231B9234C)	-0.149	1.265	0.045	-36.743	-92.468	-97.961	71.65	6.09	131.11	17.444	-43.708	18.032	0.32971	0.20721	0.55878	0.73212	23.2	13111	100
2025-5-25 9:59:37.844	WT901BLE68(801231B9234C)	-0.142	1.227	0.050	-38.574	-72.815	-91.553	70.82	7.42	128.91	17.444	-43.708	18.032	0.32971	0.20721	0.55878	0.73212	23.2	13111	100
2025-5-25 9:59:37.845	WT901BLE68(801231B9234C)	-0.130	1.149	0.045	-39.001	-48.706	-88.989	70.01	8.76	127.11	17.444	-43.708	18.032	0.32971	0.20721	0.55878	0.73212	23.2	13111	100
2025-5-25 9:59:37.889	WT901BLE68(801231B9234C)	-0.147	1.074	0.034	-36.560	-26.550	-88.318	69.26	10.17	125.69	17.444	-43.708	18.032	0.32971	0.20721	0.55878	0.73212	23.2	13111	100
2025-5-25 9:59:37.889	WT901BLE68(801231B9234C)	-0.190	1.003	0.034	-32.715	-12.817	-88.989	68.60	11.67	124.55	17.444	-43.708	18.032	0.32971	0.20721	0.55878	0.73212	23.2	13111	100
2025-5-25 9:59:37.922	WT901BLE68(801231B9234C)	-0.229	0.920	0.038	-27.832	-10.986	-89.539	68.04	13.21	123.47	17.444	-43.708	18.032	0.32971	0.20721	0.55878	0.73212	23.2	13111	100
2025-5-25 9:59:37.922	WT901BLE68(801231B9234C)	-0.254	0.875	0.029	-23.010	-20.386	-85.999	67.54	14.63	122.28	17.444	-43.708	18.032	0.32971	0.20721	0.55878	0.73212	23.2	13111	100
2025-5-25 9:59:37.957	WT901BLE68(801231B9234C)	-0.252	0.847	0.030	-19.287	-38.818	-80.200	67.03	15.84	120.81	17.444	-43.708	18.032	0.32971	0.20721	0.55878	0.73212	23.2	13111	100
2025-5-25 9:59:37.957	WT901BLE68(801231B9234C)	-0.214	0.838	0.030	-17.395	-62.317	-74.402	66.46	16.74	118.95	35.378	-30.380	2.744	0.32971	0.20721	0.55878	0.73212	23.2	13111	100
2025-5-25 9:59:38.3	WT901BLE68(801231B9234C)	-0.163	0.868	0.028	-17.334	-78.308	-68.359	65.80	17.37	116.75	35.378	-30.380	2.744	0.32971	0.20721	0.55878	0.73212	23.2	13111	100
2025-5-25 9:59:38.4	WT901BLE68(801231B9234C)	-0.127	0.895	0.021	-17.822	-81.482	-61.279	65.08	17.79	114.43	35.378	-30.380	2.744	0.32971	0.20721	0.55878	0.73212	23.2	13111	100
2025-5-25 9:59:38.46	WT901BLE68(801231B9234C)	-0.086	0.905	0.019	-18.494	-71.838	-54.260	64.39	18.08	112.27	35.378	-30.380	2.744	0.32971	0.20721	0.55878	0.73212	23.2	13111	100
2025-5-25 9:59:38.46	WT901BLE68(801231B9234C)	-0.070	0.917	0.014	-18.433	-51.270	-46.753	63.80	18.34	110.49	35.378	-30.380	2.744	0.32971	0.20721	0.55878	0.73212	23.2	13111	100
2025-5-25 9:59:38.70	WT901BLE68(801231B9234C)	-0.070	0.925	0.012	-17.395	-22.644	-38.818	63.40	18.66	109.26	35.378	-30.380	2.744	0.32971	0.20721	0.55878	0.73212	23.2	13111	100
2025-5-25 9:59:38.71	WT901BLE68(801231B9234C)	-0.097	0.901	0.013	-14.282	7.874	-31.982	63.24	19.09	108.66	35.378	-30.380	2.744	0.32971	0.20721	0.55878	0.73212	23.2	13111	100
2025-5-25 9:59:38.112	WT901BLE68(801231B9234C)	-0.146	0.881	0.012	-8.972	32.471	-24.597	63.36	19.62	108.64	35.378	-30.380	2.744	0.32971	0.20721	0.55878	0.73212	23.2	13111	100
2025-5-25 9:59:38.112	WT901BLE68(801231B9234C)	-0.192	0.851	0.016	-2.441	46.021	-16.418	63.74	20.15	109.03	35.378	-30.380	2.744	0.32971	0.20721	0.55878	0.73212	23.2	13111	100
2025-5-25 9:59:38.158	WT901BLE68(801231B9234C)	-0.216	0.811	0.034	5.371	44.495	-7.507	64.31	20.57	109.57	35.378	-30.380	2.744	0.32971	0.20721	0.55878	0.73212	23.2	13111	100
2025-5-25 9:59:38.158	WT901BLE68(801231B9234C)	-0.214	0.863	0.063	13.428	30.640	6.531	65.02	20.68	110.03	35.378	-30.380	2.744	0.54916	0.18802	0.52386	0.62329	23.2	13111	100
2025-5-25 9:59:38.202	WT901BLE68(801231B9234C)	-0.203	0.964	0.090	19.531	15.625	23.926	65.80	20.38	110.36	35.378	-30.380	2.744	0.54916	0.18802	0.52386	0.62329	23.2	13111	100
2025-5-25 9:59:38.203	WT901BLE68(801231B9234C)	-0.195	0.986	0.104	26.611	6.592	42.725	66.66	19.65	110.60	35.378	-30.380	2.744	0.54916	0.18802	0.52386	0.62329	23.2	13111	100
2025-5-25 9:59:38.272	WT901BLE68(801231B9234C)	-0.195	0.922	0.118	38.025	1.892	60.364	67.70	18.55	110.86	35.378	-30.380	2.744	0.54916	0.18802	0.52386	0.62329	23.2	13111	100
2025-5-25 9:59:38.272	WT901BLE68(801231B9234C)	-0.230	0.849	0.186	51.331	-1.404	74.524	68.96	17.15	111.18	35.378	-30.380	2.744	0.54916	0.18802	0.52386	0.62329	23.2	13111	100
2025-5-25 9:59:38.273	WT901BLE68(801231B9234C)	-0.262	0.874	0.285	63.538	-14.893	83.191	70.41	15.50	111.36	35.378	-30.380	2.744	0.54916	0.18802	0.52386	0.62329	23.2	13111	100
2025-5-25 9:59:38.273	WT901BLE68(801231B9234C)	-0.266	0.959	0.393	70.007	-36.804	87.097	71.88	13.66	111.20	35.378	-30.380	2.744	0.54916	0.18802	0.52386	0.62329	23.2	13111	100
2025-5-25 9:59:38.321	WT901BLE68(801231B9234C)	-0.212	1.033	0.443	69.763	-63.599	85.266	73.24	11.69	110.53	35.378	-30.380	2.744	0.54916	0.18802	0.52386	0.62329	23.2	13111	100
2025-5-25 9:59:38.321	WT901BLE68(801231B9234C)	-0.210	1.043	0.397	72.205	-81.055	86.670	74.48	9.67	109.42	35.378	-30.380	2.744	0.54916	0.18802	0.52386	0.62329	23.2	13111	100
2025-5-25 9:59:38.361	WT901BLE68(801231B9234C)	-0.216	1.103	0.342	70.801	-83.435	91.736	75.76	7.60	108.24	35.378	-30.380	2.744	0.54916	0.18802	0.52386	0.62329	23.2	13111	100
2025-5-25 9:59:38.362	WT901BLE68(801231B9234C)	-0.150	0.992	0.314	64.392	-87.769	105.591	76.93	5.30	107.01	32.438	-31.556	0.196	0.54916	0.18802	0.52386	0.62329	23.2	13111	100
2025-5-25 9:59:38.406	WT901BLE68(801231B9234C)	-0.133	0.946	0.313	67.261	-84.778	102.295	78.12	3.00	105.78	32.438	-31.556	0.196	0.54916	0.18802	0.52386	0.62329	23.2	13111	100
2025-5-25 9:59:38.406	WT901BLE68(801231B9234C)	-0.143	0.998	0.319	62.988	-74.951	98.755	79.32	0.86	104.67	32.438	-31.556	0.196	0.54916	0.18802	0.52386	0.62329	23.2	13111	100
2025-5-25 9:59:38.451	WT901BLE68(801231B9234C)	-0.146	1.001	0.320	57.922	-62.927	95.154	80.43	-1.14	103.77	32.438	-31.556	0.196	0.54916	0.18802	0.52386	0.62329	23.2	13111	100
2025-5-25 9:59:38.452	WT901BLE68(801231B9234C)	-0.143	1.022	0.308	53.162	-46.448	92.590	81.45	-3.00	103.14	32.438	-31.556	0.196	0.54916	0.18802	0.52386	0.62329	23.2	13111	100
2025-5-25 9:59:38.475	WT901BLE68(801231B9234C)	-0.137	1.023	0.299	48.096	-25.208	89.050	82.34	-4.73	102.90	32.438	-31.556	0.196	0.54916	0.18802	0.52386	0.62329	23.2	13111	100
2025-5-25 9:59:38.475	WT901BLE68(801231B9234C)	-0.158	1.007	0.285	43.457	1.221	83.557	83.10	-6.29	103.15	32.438	-31.556	0.196	0.54916	0.18802	0.52386	0.62329	23.2	13111	100
2025-5-25 9:59:38.521	WT901BLE68(801231B9234C)	-0.201	1.015	0.285	39.978	25.818	76.111	83.69	-7.65	103.90	32.438	-31.556	0.196	0.54916	0.18802	0.52386	0.62329	23.2	13111	100
2025-5-25 9:59:38.521	WT901BLE68(801231B9234C)	-0.253	1.028	0.285	35.400	44.861	70.129	84.13	-8.83	105.10	32.438	-31.556	0.196	0.54916	0.18802	0.52386	0.62329	23.2	13111	100
2025-5-25 9:59:38.564	WT901BLE68(801231B9234C)	-0.313	1.006	0.285	30.945	53.467	65.369	84.40	-9.87	106.57	32.438	-31.556	0.196	0.54916	0.18802	0.52386	0.62329	23.2	13111	100
2025-5-25 9:59:38.564	WT901BLE68(801231B9234C)	-0.354	1.006	0.287	26.855	49.561	60.181	84.55	-10.81	108.12	32.438	-31.556	0.196	0.36670	0.45258	0.50366	0.63788	23.2	13111	100
2025-5-25 9:59:38.611	WT901BLE68(801231B9234C)	-0.386	1.025	0.261	21.851	35.645	55.481	84.62	-11.65	109.50	32.438	-31.556	0.196	0.36670	0.45258	0.50366	0.63788	23.2	13111	100
2025-5-25 9:59:38.611	WT901BLE68(801231B9234C)	-0.357	1.116	0.286	15.198	14.648	49.072	84.62	-12.39	110.56	32.438	-31.556	0.196	0.36670	0.45258	0.50366	0.63788	23.2	13111	100
2025-5-25 9:59:38.654	WT901BLE68(801231B9234C)	-0.277	1.167	0.265	4.089	1.343	42.480	84.51	-13.03	111.30	32.438	-31.556	0.196	0.36670	0.45258	0.50366	0.63788	23.2	13111	100
2025-5-25 9:59:38.654	WT901BLE68(801231B9234C)	-0.235	0.998	0.209	-7.446	5.554	29.968	84.16	-13.47	112.03	32.438	-31.556	0.196	0.36670	0.45258	0.50366	0.63788	23.2	13111	100
2025-5-25 9:59:38.678	WT901BLE68(801231B9234C)	-0.248	0.883	0.182	-11.597	21.606	6.165	83.61	-13.49	113.01	32.438	-31.556	0.196	0.36670	0.45258	0.50366	0.63788	23.2	13111	100
2025-5-25 9:59:38.678	WT901BLE68(801231B9234C)	-0.258	0.911	0.182	-14.587	31.311	-17.700	82.97	-12.99	114.21	32.438	-31.556	0.196	0.36670	0.45258	0.50366	0.63788	23.2	13111	100
2025-5-25 9:59:38.721	WT901BLE68(801231B9234C)	-0.270	0.876	0.193	-20.020	29.968	-39.429	82.27	-12.08	115.39	32.438	-31.556	0.196	0.36670	0.45258	0.50366	0.63788	23.2	13111	100
2025-5-25 9:59:38.721	WT901BLE68(801231B9234C)	-0.283	0.905	0.159	-20.752	26.245	-51.147	81.56	-10.85	116.46	32.438	-31.556	0.196	0.36670	0.45258	0.50366	0.63788	23.2	13111	100
2025-5-25 9:59:38.766	WT901BLE68(801231B9234C)	-0.283	0.959	0.132	-19.653	18.616	-60.730	80.94	-9.37	117.31	32.438	-31.556	0.196	0.36670	0.45258	0.50366	0.63788	23.2	13111	100
2025-5-25 9:59:38.766	WT901BLE68(801231B9234C)	-0.283	1.002	0.112	-20.691	11.047	-65.369	80.39	-7.81	117.94	32.438	-31.556	0.196	0.36670	0.45258	0.50366	0.63788	23.2	13111	100
2025-5-25 9:59:38.811	WT901BLE68(801231B9234C)	-0.272	0.999	0.107	-20.020	2.747	-68.115	79.88	-6.22	118.34	16.366	-43.316	4.900	0.36670	0.45258	0.50366	0.63788	23.2	13111	100
2025-5-25 9:59:38.811	WT901BLE68(801231B9234C)	-0.262	0.995	0.106	-18.066	-8.057	-70.129	79.45	-4.63	118.47	16.366	-43.316	4.900	0.36670	0.45258	0.50366	0.63788	23.2	13111	100
2025-5-25 9:59:38.835	WT901BLE68(801231B9234C)	-0.262	1.005	0.094	-15.320	-18.188	-69.824	79.12	-3.07	118.32	16.366	-43.316	4.900	0.36670	0.45258	0.50366	0.63788	23.2	13111	100
2025-5-25 9:59:38.836	WT901BLE68(801231B9234C)	-0.272	1.008	0.091	-11.963	-27.527	-67.200	78.87	-1.59	117.92	16.366	-43.316	4.900	0.36670	0.45258	0.50366	0.63788	23.2	13111	100
2025-5-25 9:59:38.879	WT901BLE68(801231B9234C)	-0.282	1.003	0.090	-9.094	-36.255	-63.599	78.68	-0.24	117.29	16.366	-43.316	4.900	0.36670	0.45258	0.50366	0.63788	23.2	13111	100
2025-5-25 9:59:38.879	WT901BLE68(801231B9234C)	-0.290	1.009	0.079	-6.592	-45.715	-58.533	78.55	0.97	116.43	16.366	-43.316	4.900	0.36670	0.45258	0.50366	0.63788	23.2	13111	100
2025-5-25 9:59:38.925	WT901BLE68(801231B9234C)	-0.308	1.065	0.061	-5.066	-53.284	-52.795	78.45	2.03	115.38	16.366	-43.316	4.900	0.36670	0.45258	0.50366	0.63788	23.2	13111	100
2025-5-25 9:59:38.925	WT901BLE68(801231B9234C)	-0.341	1.113	0.020	-3.418	-59.082	-46.753	78.38	2.94	114.19	16.366	-43.316	4.900	0.36670	0.45258	0.50366	0.63788	23.2	13111	100
2025-5-25 9:59:38.969	WT901BLE68(801231B9234C)	-0.382	1.105	-0.004	-0.854	-68.542	-40.955	78.34	3.69	112.81	16.366	-43.316	4.900	0.36670	0.45258	0.50366	0.63788	23.2	13111	100
2025-5-25 9:59:38.969	WT901BLE68(801231B9234C)	-0.365	1.041	-0.003	0.305	-87.463	-39.917	78.32	4.31	111.10	16.366	-43.316	4.900	0.36670	0.45258	0.50366	0.63788	23.2	13111	100
2025-5-25 9:59:39.22	WT901BLE68(801231B9234C)	-0.326	0.975	-0.014	0.854	-107.971	-43.701	78.28	4.89	108.93	16.366	-43.316	4.900	0.46823	0.34485	0.53320	0.61435	23.2	13111	100
2025-5-25 9:59:39.22	WT901BLE68(801231B9234C)	-0.296	0.950	-0.042	1.648	-115.540	-49.438	78.22	5.53	106.44	16.366	-43.316	4.900	0.46823	0.34485	0.53320	0.61435	23.2	13111	100
2025-5-25 9:59:39.38	WT901BLE68(801231B9234C)	-0.290	0.895	-0.042	4.639	-109.375	-55.542	78.19	6.27	103.91	16.366	-43.316	4.900	0.46823	0.34485	0.53320	0.61435	23.2	13111	100
2025-5-25 9:59:39.38	WT901BLE68(801231B9234C)	-0.304	0.869	-0.028	7.446	-95.398	-62.866	78.22	7.17	101.54	16.366	-43.316	4.900	0.46823	0.34485	0.53320	0.61435	23.2	13111	100
2025-5-25 9:59:39.81	WT901BLE68(801231B9234C)	-0.328	0.860	-0.038	8.850	-81.665	-70.190	78.28	8.28	99.39	16.366	-43.316	4.900	0.46823	0.34485	0.53320	0.61435	23.2	13111	100
2025-5-25 9:59:39.81	WT901BLE68(801231B9234C)	-0.396	0.874	-0.056	9.705	-71.045	-72.876	78.37	9.50	97.42	16.366	-43.316	4.900	0.46823	0.34485	0.53320	0.61435	23.2	13111	100
2025-5-25 9:59:39.128	WT901BLE68(801231B9234C)	-0.348	0.887	-0.049	3.113	-69.336	-77.087	78.40	10.78	95.54	16.366	-43.316	4.900	0.46823	0.34485	0.53320	0.61435	23.2	13111	100
2025-5-25 9:59:39.128	WT901BLE68(801231B9234C)	-0.354	0.859	-0.075	7.080	-63.477	-69.824	78.40	12.01	93.64	16.366	-43.316	4.900	0.46823	0.34485	0.53320	0.61435	23.2	13111	100
2025-5-25 9:59:39.171	WT901BLE68(801231B9234C)	-0.320	0.879	-0.057	7.385	-59.204	-68.909	78.41	13.21	91.87	16.366	-43.316	4.900	0.46823	0.34485	0.53320	0.61435	23.2	13111	100
2025-5-25 9:59:39.172	WT901BLE68(801231B9234C)	-0.280	0.935	-0.060	5.859	-52.185	-61.707	78.40	14.30	90.21	16.366	-43.316	4.900	0.46823	0.34485	0.53320	0.61435	23.2	13111	100
2025-5-25 9:59:39.223	WT901BLE68(801231B9234C)	-0.260	0.960	-0.069	5.005	-38.208	-54.688	78.40	15.29	88.80	28.910	-33.124	-6.076	0.46823	0.34485	0.53320	0.61435	23.2	13111	100
2025-5-25 9:59:39.223	WT901BLE68(801231B9234C)	-0.278	0.946	-0.067	6.653	-21.057	-46.082	78.49	16.16	87.77	28.910	-33.124	-6.076	0.46823	0.34485	0.53320	0.61435	23.2	13111	100
2025-5-25 9:59:39.240	WT901BLE68(801231B9234C)	-0.287	0.936	-0.051	9.094	-8.850	-37.354	78.71	16.91	87.07	28.910	-33.124	-6.076	0.46823	0.34485	0.53320	0.61435	23.2	13111	100
2025-5-25 9:59:39.240	WT901BLE68(801231B9234C)	-0.311	0.993	-0.034	14.160	-4.761	-24.658	79.05	17.45	86.53	28.910	-33.124	-6.076	0.46823	0.34485	0.53320	0.61435	23.2	13111	100
2025-5-25 9:59:39.283	WT901BLE68(801231B9234C)	-0.305	1.083	0.017	17.090	-8.728	-12.939	79.46	17.75	86.05	28.910	-33.124	-6.076	0.46823	0.34485	0.53320	0.61435	23.2	13111	100
2025-5-25 9:59:39.283	WT901BLE68(801231B9234C)	-0.286	1.134	0.070	17.700	-17.334	-6.104	79.85	17.85	85.48	28.910	-33.124	-6.076	0.46823	0.34485	0.53320	0.61435	23.2	13111	100
2025-5-25 9:59:39.328	WT901BLE68(801231B9234C)	-0.263	1.157	0.063	18.555	-27.771	0.000	80.18	17.79	84.74	28.910	-33.124	-6.076	0.46823	0.34485	0.53320	0.61435	23.2	13111	100
2025-5-25 9:59:39.328	WT901BLE68(801231B9234C)	-0.249	1.134	0.078	20.996	-33.447	4.883	80.50	17.60	83.89	28.910	-33.124	-6.076	0.46823	0.34485	0.53320	0.61435	23.2	13111	100
2025-5-25 9:59:39.374	WT901BLE68(801231B9234C)	-0.254	1.068	0.137	24.536	-40.100	5.859	80.83	17.34	82.95	28.910	-33.124	-6.076	0.46823	0.34485	0.53320	0.61435	23.2	13111	100
2025-5-25 9:59:39.374	WT901BLE68(801231B9234C)	-0.254	0.997	0.191	25.146	-54.443	-0.244	81.12	17.12	81.79	28.910	-33.124	-6.076	0.46823	0.34485	0.53320	0.61435	23.2	13111	100
2025-5-25 9:59:39.418	WT901BLE68(801231B9234C)	-0.242	0.967	0.221	22.034	-72.632	-7.996	81.25	17.01	80.28	28.910	-33.124	-6.076	0.63226	0.42554	0.50040	0.41068	23.2	13111	100
2025-5-25 9:59:39.418	WT901BLE68(801231B9234C)	-0.173	0.974	0.233	13.367	-91.980	-16.785	81.12	17.01	78.39	28.910	-33.124	-6.076	0.63226	0.42554	0.50040	0.41068	23.2	13111	100
2025-5-25 9:59:39.444	WT901BLE68(801231B9234C)	-0.107	0.964	0.166	3.723	-101.624	-23.010	80.67	17.11	76.19	28.910	-33.124	-6.076	0.63226	0.42554	0.50040	0.41068	23.2	13111	100
2025-5-25 9:59:39.444	WT901BLE68(801231B9234C)	-0.022	1.012	0.104	-6.287	-89.111	-27.100	80.10	17.29	74.11	28.910	-33.124	-6.076	0.63226	0.42554	0.50040	0.41068	23.2	13111	100
2025-5-25 9:59:39.487	WT901BLE68(801231B9234C)	0.021	1.042	0.042	-16.968	-63.232	-17.700	79.40	17.41	72.43	28.910	-33.124	-6.076	0.63226	0.42554	0.50040	0.41068	23.2	13111	100
2025-5-25 9:59:39.487	WT901BLE68(801231B9234C)	0.010	1.021	0.036	-23.621	-18.311	-8.789	78.79	17.43	71.57	28.910	-33.124	-6.076	0.63226	0.42554	0.50040	0.41068	23.2	13111	100
2025-5-25 9:59:39.531	WT901BLE68(801231B9234C)	-0.033	0.990	0.044	-22.766	26.123	1.648	78.44	17.41	71.67	28.910	-33.124	-6.076	0.63226	0.42554	0.50040	0.41068	23.2	13111	100
2025-5-25 9:59:39.531	WT901BLE68(801231B9234C)	-0.118	0.995	0.060	-18.372	63.293	14.587	78.41	17.28	72.62	28.910	-33.124	-6.076	0.63226	0.42554	0.50040	0.41068	23.2	13111	100
2025-5-25 9:59:39.599	WT901BLE68(801231B9234C)	-0.196	0.964	0.089	-14.465	90.088	23.926	78.65	17.04	74.22	28.910	-33.124	-6.076	0.63226	0.42554	0.50040	0.41068	23.2	13111	100
2025-5-25 9:59:39.599	WT901BLE68(801231B9234C)	-0.233	0.911	0.107	-12.756	99.426	31.799	79.05	16.70	76.17	28.910	-33.124	-6.076	0.63226	0.42554	0.50040	0.41068	23.2	13111	100
2025-5-25 9:59:39.600	WT901BLE68(801231B9234C)	-0.275	0.874	0.097	-6.470	96.130	40.894	79.50	16.21	78.12	28.910	-33.124	-6.076	0.63226	0.42554	0.50040	0.41068	23.2	13111	100
2025-5-25 9:59:39.600	WT901BLE68(801231B9234C)	-0.292	0.875	0.087	-2.319	75.562	47.424	79.96	15.54	79.81	26.362	-30.968	-13.818	0.63226	0.42554	0.50040	0.41068	23.2	13111	100
2025-5-25 9:59:39.644	WT901BLE68(801231B9234C)	-0.298	0.872	0.064	0.793	45.532	55.481	80.33	14.63	80.93	26.362	-30.968	-13.818	0.63226	0.42554	0.50040	0.41068	23.2	13111	100
2025-5-25 9:59:39.645	WT901BLE68(801231B9234C)	-0.269	0.858	0.053	3.357	13.733	62.012	80.59	13.51	81.41	26.362	-30.968	-13.818	0.63226	0.42554	0.50040	0.41068	23.2	13111	100
