time	DeviceName	AccX(g)	AccY(g)	AccZ(g)	AsX(°/s)	AsY(°/s)	AsZ(°/s)	AngleX(°)	AngleY(°)	AngleZ(°)	HX(uT)	HY(uT)	HZ(uT)	Q0()	Q1()	Q2()	Q3()	Temperature(°C)	Version()	Battery level(%)
2025-5-25 10:37:10.671	WT901BLE68(801231B9234C)	-1.142	-0.125	-0.111	12.207	-3.296	22.705	-171.70	82.29	6.34	45.080	-20.286	8.036	0.01807	-0.76294	-0.00909	0.64609	22.6	13111	100
2025-5-25 10:37:10.671	WT901BLE68(801231B9234C)	-1.253	-0.068	-0.164	15.869	3.418	35.583	-175.14	82.38	2.52	45.080	-20.286	8.036	0.01807	-0.76294	-0.00909	0.64609	22.6	13111	100
2025-5-25 10:37:10.733	WT901BLE68(801231B9234C)	-1.263	0.036	-0.206	18.127	11.780	37.659	-179.45	82.27	-2.24	45.080	-20.286	8.036	0.01807	-0.76294	-0.00909	0.64609	22.6	13111	100
2025-5-25 10:37:10.733	WT901BLE68(801231B9234C)	-1.213	0.072	-0.258	25.574	12.817	41.748	175.98	82.01	-7.33	45.080	-20.286	8.036	0.01807	-0.76294	-0.00909	0.64609	22.6	13111	100
2025-5-25 10:37:10.761	WT901BLE68(801231B9234C)	-1.184	0.064	-0.250	35.767	7.996	38.757	171.75	81.74	-12.27	43.414	-23.618	7.840	0.01807	-0.76294	-0.00909	0.64609	22.6	13111	100
2025-5-25 10:37:10.761	WT901BLE68(801231B9234C)	-1.238	0.129	-0.184	39.612	-5.798	27.100	168.77	81.64	-16.09	43.414	-23.618	7.840	0.01807	-0.76294	-0.00909	0.64609	22.6	13111	100
2025-5-25 10:37:10.792	WT901BLE68(801231B9234C)	-1.077	0.233	-0.108	32.471	-41.443	16.418	166.30	82.12	-19.28	43.414	-23.618	7.840	0.01807	-0.76294	-0.00909	0.64609	22.6	13111	100
2025-5-25 10:37:10.792	WT901BLE68(801231B9234C)	-1.058	0.264	-0.131	14.221	-67.627	7.141	163.10	83.19	-22.94	43.414	-23.618	7.840	0.01807	-0.76294	-0.00909	0.64609	22.6	13111	100
2025-5-25 10:37:10.852	WT901BLE68(801231B9234C)	-0.954	0.295	-0.079	-11.292	-86.792	-1.892	158.35	84.69	-27.69	43.414	-23.618	7.840	0.01807	-0.76294	-0.00909	0.64609	22.6	13111	100
2025-5-25 10:37:10.852	WT901BLE68(801231B9234C)	-0.844	0.327	-0.113	-35.889	-105.530	8.789	146.58	86.40	-38.96	43.414	-23.618	7.840	0.01807	-0.76294	-0.00909	0.64609	22.6	13111	100
2025-5-25 10:37:10.884	WT901BLE68(801231B9234C)	-0.824	0.406	-0.057	-56.335	-104.492	26.062	117.27	87.37	-67.41	43.414	-23.618	7.840	0.01807	-0.76294	-0.00909	0.64609	22.6	13111	100
2025-5-25 10:37:10.884	WT901BLE68(801231B9234C)	-0.761	0.428	-0.014	-74.768	-119.568	41.992	76.77	86.84	-106.59	43.414	-23.618	7.840	0.01807	-0.76294	-0.00909	0.64609	22.6	13111	100
2025-5-25 10:37:10.914	WT901BLE68(801231B9234C)	-0.493	0.521	0.106	-102.661	-139.771	54.993	52.15	84.73	-129.33	43.414	-23.618	7.840	0.01807	-0.76294	-0.00909	0.64609	22.6	13111	100
2025-5-25 10:37:10.914	WT901BLE68(801231B9234C)	-0.396	0.499	0.133	-115.234	-113.525	71.472	42.70	81.98	-136.51	43.414	-23.618	7.840	-0.03784	-0.66663	0.03476	0.74353	22.6	13111	100
2025-5-25 10:37:10.972	WT901BLE68(801231B9234C)	-0.305	0.594	0.180	-127.747	-56.519	89.417	42.62	79.69	-134.15	43.414	-23.618	7.840	-0.03784	-0.66663	0.03476	0.74353	22.6	13111	100
2025-5-25 10:37:10.972	WT901BLE68(801231B9234C)	-0.268	0.545	0.121	-123.901	-5.859	114.258	46.52	77.75	-127.53	43.414	-23.618	7.840	-0.03784	-0.66663	0.03476	0.74353	22.6	13111	100
2025-5-25 10:37:11.7	WT901BLE68(801231B9234C)	-0.341	0.535	0.046	-119.873	37.476	139.282	53.40	75.98	-117.43	43.414	-23.618	7.840	-0.03784	-0.66663	0.03476	0.74353	22.6	13111	100
2025-5-25 10:37:11.7	WT901BLE68(801231B9234C)	-0.357	0.484	0.052	-112.854	57.434	162.231	61.06	73.95	-106.12	43.414	-23.618	7.840	-0.03784	-0.66663	0.03476	0.74353	22.6	13111	100
2025-5-25 10:37:11.31	WT901BLE68(801231B9234C)	-0.382	0.462	0.057	-111.938	44.312	187.134	67.22	71.14	-96.32	43.414	-23.618	7.840	-0.03784	-0.66663	0.03476	0.74353	22.6	13111	100
2025-5-25 10:37:11.32	WT901BLE68(801231B9234C)	-0.389	0.447	0.044	-107.361	30.762	212.463	71.07	67.50	-88.96	43.414	-23.618	7.840	-0.03784	-0.66663	0.03476	0.74353	22.6	13111	100
2025-5-25 10:37:11.94	WT901BLE68(801231B9234C)	-0.376	0.423	0.067	-98.389	16.418	241.577	73.27	63.14	-83.46	43.414	-23.618	7.840	-0.03784	-0.66663	0.03476	0.74353	22.6	13111	100
2025-5-25 10:37:11.94	WT901BLE68(801231B9234C)	-0.369	0.429	0.082	-83.313	-0.122	271.423	74.43	58.07	-79.43	43.414	-23.618	7.840	-0.03784	-0.66663	0.03476	0.74353	22.6	13111	100
2025-5-25 10:37:11.124	WT901BLE68(801231B9234C)	-0.392	0.456	0.082	-66.162	-13.245	298.950	74.98	52.39	-76.47	43.414	-23.618	7.840	-0.03784	-0.66663	0.03476	0.74353	22.6	13111	100
2025-5-25 10:37:11.124	WT901BLE68(801231B9234C)	-0.346	0.519	0.112	-51.086	-24.414	321.899	75.30	46.19	-74.20	25.676	-37.240	-13.328	-0.03784	-0.66663	0.03476	0.74353	22.6	13111	100
2025-5-25 10:37:11.153	WT901BLE68(801231B9234C)	-0.390	0.639	0.149	-22.888	-22.522	351.074	75.73	39.47	-72.33	25.676	-37.240	-13.328	-0.03784	-0.66663	0.03476	0.74353	22.6	13111	100
2025-5-25 10:37:11.153	WT901BLE68(801231B9234C)	-0.467	0.829	0.201	-4.028	2.686	364.136	76.57	32.46	-70.29	25.676	-37.240	-13.328	-0.03784	-0.66663	0.03476	0.74353	22.6	13111	100
2025-5-25 10:37:11.211	WT901BLE68(801231B9234C)	-0.472	1.112	0.215	7.507	77.759	364.685	78.00	25.63	-67.37	25.676	-37.240	-13.328	-0.03784	-0.66663	0.03476	0.74353	22.6	13111	100
2025-5-25 10:37:11.212	WT901BLE68(801231B9234C)	-0.697	1.333	0.128	11.414	160.339	366.394	79.75	19.00	-63.08	25.676	-37.240	-13.328	-0.03784	-0.66663	0.03476	0.74353	22.6	13111	100
2025-5-25 10:37:11.241	WT901BLE68(801231B9234C)	-0.901	1.648	0.089	4.639	208.313	358.093	81.26	12.66	-57.89	25.676	-37.240	-13.328	-0.03784	-0.66663	0.03476	0.74353	22.6	13111	100
2025-5-25 10:37:11.242	WT901BLE68(801231B9234C)	-1.130	1.810	0.154	-16.602	187.927	338.379	81.91	6.51	-52.94	25.676	-37.240	-13.328	-0.03784	-0.66663	0.03476	0.74353	22.6	13111	100
2025-5-25 10:37:11.272	WT901BLE68(801231B9234C)	-1.331	1.867	0.165	-45.227	92.224	290.710	81.48	1.03	-49.59	25.676	-37.240	-13.328	-0.03784	-0.66663	0.03476	0.74353	22.6	13111	100
2025-5-25 10:37:11.272	WT901BLE68(801231B9234C)	-1.146	1.711	0.134	-72.083	-46.021	235.779	80.28	-3.66	-48.85	25.676	-37.240	-13.328	-0.03784	-0.66663	0.03476	0.74353	22.6	13111	100
2025-5-25 10:37:11.332	WT901BLE68(801231B9234C)	-0.834	1.460	-0.056	-70.496	-158.569	190.979	79.13	-7.72	-50.70	25.676	-37.240	-13.328	-0.03784	-0.66663	0.03476	0.74353	22.6	13111	100
2025-5-25 10:37:11.333	WT901BLE68(801231B9234C)	-0.624	1.371	-0.117	-50.903	-200.012	148.132	78.64	-11.17	-54.06	25.676	-37.240	-13.328	-0.03784	-0.66663	0.03476	0.74353	22.6	13111	100
2025-5-25 10:37:11.361	WT901BLE68(801231B9234C)	-0.468	1.313	0.001	-32.471	-175.293	96.130	78.76	-13.63	-57.53	25.676	-37.240	-13.328	-0.70770	-0.50922	0.38806	0.29855	22.6	13111	100
2025-5-25 10:37:11.361	WT901BLE68(801231B9234C)	-0.449	1.255	0.134	-13.855	-136.963	39.001	79.18	-14.84	-60.49	25.676	-37.240	-13.328	-0.70770	-0.50922	0.38806	0.29855	22.6	13111	100
2025-5-25 10:37:11.391	WT901BLE68(801231B9234C)	-0.347	1.366	0.202	-0.122	-88.989	-28.687	79.83	-14.69	-62.75	25.676	-37.240	-13.328	-0.70770	-0.50922	0.38806	0.29855	22.6	13111	100
2025-5-25 10:37:11.392	WT901BLE68(801231B9234C)	-0.299	1.279	0.192	2.380	-62.927	-92.590	80.35	-13.03	-64.57	25.676	-37.240	-13.328	-0.70770	-0.50922	0.38806	0.29855	22.6	13111	100
2025-5-25 10:37:11.452	WT901BLE68(801231B9234C)	-0.361	1.184	0.175	4.333	-46.082	-145.203	80.80	-10.27	-66.07	25.676	-37.240	-13.328	-0.70770	-0.50922	0.38806	0.29855	22.6	13111	100
2025-5-25 10:37:11.453	WT901BLE68(801231B9234C)	-0.478	1.130	0.115	8.972	-47.241	-179.626	81.21	-6.69	-67.55	25.676	-37.240	-13.328	-0.70770	-0.50922	0.38806	0.29855	22.6	13111	100
2025-5-25 10:37:11.483	WT901BLE68(801231B9234C)	-0.566	1.165	0.085	9.277	-64.270	-197.998	81.62	-2.70	-69.25	25.676	-37.240	-13.328	-0.70770	-0.50922	0.38806	0.29855	22.6	13111	100
2025-5-25 10:37:11.483	WT901BLE68(801231B9234C)	-0.552	1.184	0.025	9.888	-101.257	-200.073	81.90	1.30	-71.56	25.676	-37.240	-13.328	-0.70770	-0.50922	0.38806	0.29855	22.6	13111	100
2025-5-25 10:37:11.514	WT901BLE68(801231B9234C)	-0.479	1.252	-0.012	4.761	-145.813	-190.796	81.93	5.07	-74.65	25.676	-37.240	-13.328	-0.70770	-0.50922	0.38806	0.29855	22.6	13111	100
2025-5-25 10:37:11.514	WT901BLE68(801231B9234C)	-0.367	1.319	-0.043	-4.089	-175.232	-181.152	81.56	8.49	-78.44	-22.540	-37.436	-12.250	-0.70770	-0.50922	0.38806	0.29855	22.6	13111	100
2025-5-25 10:37:11.572	WT901BLE68(801231B9234C)	-0.271	1.321	-0.061	-13.855	-185.913	-172.852	80.73	11.58	-82.53	-22.540	-37.436	-12.250	-0.70770	-0.50922	0.38806	0.29855	22.6	13111	100
2025-5-25 10:37:11.573	WT901BLE68(801231B9234C)	-0.188	1.296	-0.092	-21.790	-178.833	-171.204	79.51	14.49	-86.68	-22.540	-37.436	-12.250	-0.70770	-0.50922	0.38806	0.29855	22.6	13111	100
2025-5-25 10:37:11.607	WT901BLE68(801231B9234C)	-0.156	1.279	-0.114	-25.635	-156.372	-171.814	78.07	17.30	-90.52	-22.540	-37.436	-12.250	-0.70770	-0.50922	0.38806	0.29855	22.6	13111	100
2025-5-25 10:37:11.607	WT901BLE68(801231B9234C)	-0.182	1.232	-0.100	-26.855	-124.634	-175.110	76.59	20.13	-93.85	-22.540	-37.436	-12.250	-0.70770	-0.50922	0.38806	0.29855	22.6	13111	100
2025-5-25 10:37:11.662	WT901BLE68(801231B9234C)	-0.216	1.169	-0.076	-27.283	-100.891	-179.810	75.11	23.05	-96.69	-22.540	-37.436	-12.250	-0.70770	-0.50922	0.38806	0.29855	22.6	13111	100
2025-5-25 10:37:11.663	WT901BLE68(801231B9234C)	-0.218	1.125	-0.075	-28.259	-86.243	-180.054	73.59	26.00	-99.27	-22.540	-37.436	-12.250	-0.70770	-0.50922	0.38806	0.29855	22.6	13111	100
2025-5-25 10:37:11.692	WT901BLE68(801231B9234C)	-0.196	1.084	-0.081	-30.762	-76.355	-176.086	71.98	28.86	-101.66	-22.540	-37.436	-12.250	-0.70770	-0.50922	0.38806	0.29855	22.6	13111	100
2025-5-25 10:37:11.693	WT901BLE68(801231B9234C)	-0.184	1.046	-0.085	-32.166	-66.406	-168.701	70.31	31.58	-103.89	-22.540	-37.436	-12.250	-0.70770	-0.50922	0.38806	0.29855	22.6	13111	100
2025-5-25 10:37:11.721	WT901BLE68(801231B9234C)	-0.172	0.984	-0.080	-32.959	-57.495	-160.950	68.61	34.13	-105.90	-22.540	-37.436	-12.250	-0.70770	-0.50922	0.38806	0.29855	22.6	13111	100
2025-5-25 10:37:11.721	WT901BLE68(801231B9234C)	-0.163	0.938	-0.071	-31.982	-50.537	-153.381	66.92	36.55	-107.73	-22.540	-37.436	-12.250	-0.32413	-0.51938	0.27109	0.74268	22.6	13111	100
2025-5-25 10:37:11.783	WT901BLE68(801231B9234C)	-0.163	0.922	-0.057	-30.518	-44.067	-144.958	65.26	38.81	-109.36	-22.540	-37.436	-12.250	-0.32413	-0.51938	0.27109	0.74268	22.6	13111	100
2025-5-25 10:37:11.783	WT901BLE68(801231B9234C)	-0.160	0.918	-0.033	-27.771	-39.978	-134.277	63.68	40.91	-110.79	-22.540	-37.436	-12.250	-0.32413	-0.51938	0.27109	0.74268	22.6	13111	100
2025-5-25 10:37:11.811	WT901BLE68(801231B9234C)	-0.156	0.890	0.006	-26.062	-39.673	-126.343	62.14	42.83	-112.08	-22.540	-37.436	-12.250	-0.32413	-0.51938	0.27109	0.74268	22.6	13111	100
2025-5-25 10:37:11.811	WT901BLE68(801231B9234C)	-0.151	0.835	0.044	-24.475	-38.818	-121.033	60.57	44.63	-113.31	-22.540	-37.436	-12.250	-0.32413	-0.51938	0.27109	0.74268	22.6	13111	100
2025-5-25 10:37:11.842	WT901BLE68(801231B9234C)	-0.131	0.870	0.051	-22.644	-44.006	-115.356	58.93	46.31	-114.54	-22.540	-37.436	-12.250	-0.32413	-0.51938	0.27109	0.74268	22.6	13111	100
2025-5-25 10:37:11.842	WT901BLE68(801231B9234C)	-0.116	0.903	0.056	-18.982	-41.870	-104.370	57.30	47.81	-115.70	-22.540	-37.436	-12.250	-0.32413	-0.51938	0.27109	0.74268	22.6	13111	100
2025-5-25 10:37:11.907	WT901BLE68(801231B9234C)	-0.106	0.929	0.083	-10.620	-34.912	-91.553	56.01	49.16	-116.53	-22.540	-37.436	-12.250	-0.32413	-0.51938	0.27109	0.74268	22.6	13111	100
2025-5-25 10:37:11.907	WT901BLE68(801231B9234C)	-0.096	0.938	0.108	-1.221	-36.072	-73.242	54.98	50.27	-117.10	-22.540	-37.436	-12.250	-0.32413	-0.51938	0.27109	0.74268	22.6	13111	100
2025-5-25 10:37:11.934	WT901BLE68(801231B9234C)	-0.076	0.944	0.151	8.789	-32.532	-50.720	54.43	51.09	-117.23	-22.540	-37.436	-12.250	-0.32413	-0.51938	0.27109	0.74268	22.6	13111	100
2025-5-25 10:37:11.935	WT901BLE68(801231B9234C)	-0.070	0.944	0.212	22.583	-24.048	-25.757	54.56	51.58	-116.75	16.562	-43.022	-12.348	-0.32413	-0.51938	0.27109	0.74268	22.6	13111	100
2025-5-25 10:37:11.965	WT901BLE68(801231B9234C)	-0.061	0.979	0.244	36.560	-18.860	3.906	55.47	51.72	-115.59	16.562	-43.022	-12.348	-0.32413	-0.51938	0.27109	0.74268	22.6	13111	100
2025-5-25 10:37:11.965	WT901BLE68(801231B9234C)	-0.035	1.080	0.204	54.199	-5.127	44.434	57.40	51.37	-113.50	16.562	-43.022	-12.348	-0.32413	-0.51938	0.27109	0.74268	22.6	13111	100
2025-5-25 10:37:12.21	WT901BLE68(801231B9234C)	-0.077	1.102	0.139	72.876	21.057	96.619	60.68	50.38	-110.13	16.562	-43.022	-12.348	-0.32413	-0.51938	0.27109	0.74268	22.6	13111	100
2025-5-25 10:37:12.22	WT901BLE68(801231B9234C)	-0.179	1.053	0.138	95.276	51.636	152.710	65.37	48.55	-105.41	16.562	-43.022	-12.348	-0.32413	-0.51938	0.27109	0.74268	22.6	13111	100
2025-5-25 10:37:12.51	WT901BLE68(801231B9234C)	-0.250	1.091	0.187	116.760	66.528	204.895	70.91	45.65	-99.98	16.562	-43.022	-12.348	-0.32413	-0.51938	0.27109	0.74268	22.6	13111	100
2025-5-25 10:37:12.51	WT901BLE68(801231B9234C)	-0.316	1.172	0.284	127.991	56.458	244.263	76.30	41.59	-94.90	16.562	-43.022	-12.348	-0.32413	-0.51938	0.27109	0.74268	22.6	13111	100
2025-5-25 10:37:12.83	WT901BLE68(801231B9234C)	-0.342	1.286	0.389	126.465	18.860	263.611	80.24	36.66	-92.74	16.562	-43.022	-12.348	-0.32413	-0.51938	0.27109	0.74268	22.6	13111	100
2025-5-25 10:37:12.83	WT901BLE68(801231B9234C)	-0.301	1.382	0.466	119.080	-26.428	262.024	82.65	31.32	-93.51	16.562	-43.022	-12.348	-0.32413	-0.51938	0.27109	0.74268	22.6	13111	100
2025-5-25 10:37:12.142	WT901BLE68(801231B9234C)	-0.221	1.501	0.472	98.816	-56.030	241.760	84.35	26.14	-94.88	16.562	-43.022	-12.348	-0.32413	-0.51938	0.27109	0.74268	22.6	13111	100
2025-5-25 10:37:12.142	WT901BLE68(801231B9234C)	-0.104	1.592	0.300	78.247	-79.346	223.206	85.36	21.40	-96.80	16.562	-43.022	-12.348	-0.32413	-0.51938	0.27109	0.74268	22.6	13111	100
2025-5-25 10:37:12.175	WT901BLE68(801231B9234C)	0.018	1.597	0.095	60.547	-54.688	234.558	86.22	16.67	-98.43	16.562	-43.022	-12.348	-0.40097	-0.51584	0.45639	0.60391	22.6	13111	100
2025-5-25 10:37:12.176	WT901BLE68(801231B9234C)	0.053	1.379	0.008	52.246	2.258	230.164	87.14	11.91	-99.04	16.562	-43.022	-12.348	-0.40097	-0.51584	0.45639	0.60391	22.6	13111	100
2025-5-25 10:37:12.208	WT901BLE68(801231B9234C)	-0.035	1.249	0.032	47.302	77.393	205.444	88.21	7.62	-98.25	16.562	-43.022	-12.348	-0.40097	-0.51584	0.45639	0.60391	22.6	13111	100
2025-5-25 10:37:12.208	WT901BLE68(801231B9234C)	-0.179	1.159	0.131	36.743	147.766	174.866	89.17	3.95	-96.00	16.562	-43.022	-12.348	-0.40097	-0.51584	0.45639	0.60391	22.6	13111	100
2025-5-25 10:37:12.262	WT901BLE68(801231B9234C)	-0.326	0.854	0.217	17.700	186.951	157.043	89.65	0.58	-92.80	16.562	-43.022	-12.348	-0.40097	-0.51584	0.45639	0.60391	22.6	13111	100
2025-5-25 10:37:12.262	WT901BLE68(801231B9234C)	-0.403	0.960	0.202	17.029	198.792	128.540	89.87	-2.13	-89.14	16.562	-43.022	-12.348	-0.40097	-0.51584	0.45639	0.60391	22.6	13111	100
2025-5-25 10:37:12.293	WT901BLE68(801231B9234C)	-0.444	0.849	0.165	14.465	191.956	98.450	89.85	-4.19	-85.52	16.562	-43.022	-12.348	-0.40097	-0.51584	0.45639	0.60391	22.6	13111	100
2025-5-25 10:37:12.293	WT901BLE68(801231B9234C)	-0.451	0.805	0.178	7.568	171.143	72.388	89.63	-5.63	-82.16	16.562	-43.022	-12.348	-0.40097	-0.51584	0.45639	0.60391	22.6	13111	100
2025-5-25 10:37:12.324	WT901BLE68(801231B9234C)	-0.434	0.771	0.155	5.615	135.742	52.673	89.33	-6.54	-79.41	16.562	-43.022	-12.348	-0.40097	-0.51584	0.45639	0.60391	22.6	13111	100
2025-5-25 10:37:12.325	WT901BLE68(801231B9234C)	-0.406	0.792	0.166	0.061	98.877	40.649	89.03	-7.12	-77.39	16.562	-43.022	-12.348	-0.40097	-0.51584	0.45639	0.60391	22.6	13111	100
2025-5-25 10:37:12.382	WT901BLE68(801231B9234C)	-0.374	0.792	0.251	-3.296	72.327	35.217	88.71	-7.52	-75.98	-27.342	-36.064	-2.548	-0.40097	-0.51584	0.45639	0.60391	22.6	13111	100
2025-5-25 10:37:12.382	WT901BLE68(801231B9234C)	-0.371	0.751	0.333	-6.653	55.664	31.860	88.36	-7.82	-74.95	-27.342	-36.064	-2.548	-0.40097	-0.51584	0.45639	0.60391	22.6	13111	100
2025-5-25 10:37:12.410	WT901BLE68(801231B9234C)	-0.380	0.719	0.380	-11.597	40.955	39.917	87.95	-8.17	-74.25	-27.342	-36.064	-2.548	-0.40097	-0.51584	0.45639	0.60391	22.6	13111	100
2025-5-25 10:37:12.410	WT901BLE68(801231B9234C)	-0.375	0.657	0.401	-12.756	30.823	35.767	87.47	-8.54	-73.77	-27.342	-36.064	-2.548	-0.40097	-0.51584	0.45639	0.60391	22.6	13111	100
2025-5-25 10:37:12.441	WT901BLE68(801231B9234C)	-0.383	0.760	0.412	-10.742	20.264	24.292	87.06	-8.69	-73.51	-27.342	-36.064	-2.548	-0.40097	-0.51584	0.45639	0.60391	22.6	13111	100
2025-5-25 10:37:12.442	WT901BLE68(801231B9234C)	-0.393	0.902	0.388	-10.620	11.169	19.104	86.67	-8.68	-73.44	-27.342	-36.064	-2.548	-0.40097	-0.51584	0.45639	0.60391	22.6	13111	100
2025-5-25 10:37:12.507	WT901BLE68(801231B9234C)	-0.375	1.003	0.366	-10.681	3.967	11.963	86.30	-8.58	-73.53	-27.342	-36.064	-2.548	-0.40097	-0.51584	0.45639	0.60391	22.6	13111	100
2025-5-25 10:37:12.507	WT901BLE68(801231B9234C)	-0.364	1.105	0.351	-10.559	0.061	-2.441	85.96	-8.26	-73.73	-27.342	-36.064	-2.548	-0.40097	-0.51584	0.45639	0.60391	22.6	13111	100
2025-5-25 10:37:12.535	WT901BLE68(801231B9234C)	-0.330	1.184	0.350	-12.634	-0.183	-22.644	85.61	-7.60	-73.97	-27.342	-36.064	-2.548	-0.40097	-0.51584	0.45639	0.60391	22.6	13111	100
2025-5-25 10:37:12.535	WT901BLE68(801231B9234C)	-0.353	1.190	0.259	-14.648	-1.770	-38.696	85.25	-6.53	-74.24	-27.342	-36.064	-2.548	-0.60657	-0.51569	0.44302	0.41205	22.6	13111	100
2025-5-25 10:37:12.564	WT901BLE68(801231B9234C)	-0.349	1.346	0.255	-10.620	3.967	-61.157	84.94	-5.15	-74.47	-27.342	-36.064	-2.548	-0.60657	-0.51569	0.44302	0.41205	22.6	13111	100
2025-5-25 10:37:12.564	WT901BLE68(801231B9234C)	-0.379	1.402	0.246	-5.920	3.662	-84.534	84.70	-3.36	-74.65	-27.342	-36.064	-2.548	-0.60657	-0.51569	0.44302	0.41205	22.6	13111	100
2025-5-25 10:37:12.622	WT901BLE68(801231B9234C)	-0.354	1.482	0.192	-0.488	-11.414	-104.126	84.59	-1.18	-75.09	-27.342	-36.064	-2.548	-0.60657	-0.51569	0.44302	0.41205	22.6	13111	100
2025-5-25 10:37:12.622	WT901BLE68(801231B9234C)	-0.381	1.429	0.186	1.831	-30.945	-117.126	84.57	1.23	-75.88	-27.342	-36.064	-2.548	-0.60657	-0.51569	0.44302	0.41205	22.6	13111	100
2025-5-25 10:37:12.651	WT901BLE68(801231B9234C)	-0.426	1.279	0.188	5.127	-54.199	-133.850	84.54	3.86	-77.13	-27.342	-36.064	-2.548	-0.60657	-0.51569	0.44302	0.41205	22.6	13111	100
2025-5-25 10:37:12.651	WT901BLE68(801231B9234C)	-0.411	1.225	0.170	7.935	-91.370	-149.170	84.46	6.72	-79.01	-27.342	-36.064	-2.548	-0.60657	-0.51569	0.44302	0.41205	22.6	13111	100
2025-5-25 10:37:12.682	WT901BLE68(801231B9234C)	-0.358	1.259	0.093	9.888	-134.338	-158.264	84.24	9.72	-81.74	-27.342	-36.064	-2.548	-0.60657	-0.51569	0.44302	0.41205	22.6	13111	100
2025-5-25 10:37:12.682	WT901BLE68(801231B9234C)	-0.330	1.317	0.019	7.935	-172.424	-158.875	83.73	12.65	-85.32	-27.342	-36.064	-2.548	-0.60657	-0.51569	0.44302	0.41205	22.6	13111	100
2025-5-25 10:37:12.743	WT901BLE68(801231B9234C)	-0.309	1.360	-0.008	1.648	-199.646	-157.349	82.82	15.41	-89.55	-27.342	-36.064	-2.548	-0.60657	-0.51569	0.44302	0.41205	22.6	13111	100
2025-5-25 10:37:12.743	WT901BLE68(801231B9234C)	-0.242	1.391	-0.032	-6.226	-222.046	-155.640	81.42	17.97	-94.33	-27.342	-36.064	-2.548	-0.60657	-0.51569	0.44302	0.41205	22.6	13111	100
2025-5-25 10:37:12.774	WT901BLE68(801231B9234C)	-0.165	1.404	-0.053	-16.602	-228.210	-153.503	79.56	20.26	-99.45	-17.640	-41.846	-3.626	-0.60657	-0.51569	0.44302	0.41205	22.6	13111	100
2025-5-25 10:37:12.774	WT901BLE68(801231B9234C)	-0.112	1.368	-0.067	-28.076	-216.614	-156.921	77.32	22.39	-104.57	-17.640	-41.846	-3.626	-0.60657	-0.51569	0.44302	0.41205	22.6	13111	100
2025-5-25 10:37:12.807	WT901BLE68(801231B9234C)	-0.060	1.308	-0.081	-37.415	-192.444	-162.109	74.83	24.47	-109.40	-17.640	-41.846	-3.626	-0.60657	-0.51569	0.44302	0.41205	22.6	13111	100
2025-5-25 10:37:12.807	WT901BLE68(801231B9234C)	-0.037	1.221	-0.072	-44.495	-157.898	-168.274	72.26	26.59	-113.74	-17.640	-41.846	-3.626	-0.60657	-0.51569	0.44302	0.41205	22.6	13111	100
2025-5-25 10:37:12.862	WT901BLE68(801231B9234C)	-0.031	1.123	-0.051	-49.011	-119.263	-174.805	69.74	28.86	-117.44	-17.640	-41.846	-3.626	-0.60657	-0.51569	0.44302	0.41205	22.6	13111	100
2025-5-25 10:37:12.862	WT901BLE68(801231B9234C)	-0.052	1.044	-0.009	-51.880	-80.017	-179.688	67.35	31.33	-120.48	-17.640	-41.846	-3.626	-0.60657	-0.51569	0.44302	0.41205	22.6	13111	100
2025-5-25 10:37:12.891	WT901BLE68(801231B9234C)	-0.084	0.953	0.038	-55.786	-49.133	-184.204	65.07	34.01	-122.95	-17.640	-41.846	-3.626	-0.60657	-0.51569	0.44302	0.41205	22.6	13111	100
2025-5-25 10:37:12.891	WT901BLE68(801231B9234C)	-0.080	0.874	0.035	-58.228	-26.001	-185.242	62.84	36.85	-125.05	-17.640	-41.846	-3.626	-0.60657	-0.51569	0.44302	0.41205	22.6	13111	100
2025-5-25 10:37:12.924	WT901BLE68(801231B9234C)	-0.104	0.831	0.064	-59.875	-7.446	-181.519	60.68	39.75	-126.78	-17.640	-41.846	-3.626	-0.60657	-0.51569	0.44302	0.41205	22.6	13111	100
2025-5-25 10:37:12.924	WT901BLE68(801231B9234C)	-0.148	0.777	0.091	-61.035	3.235	-178.406	58.56	42.69	-128.17	-17.640	-41.846	-3.626	-0.60657	-0.51569	0.44302	0.41205	22.6	13111	100
2025-5-25 10:37:12.982	WT901BLE68(801231B9234C)	-0.165	0.754	0.085	-59.387	-0.427	-173.340	56.32	45.77	-129.19	-17.640	-41.846	-3.626	-0.17722	-0.49957	0.23840	0.81366	22.6	13111	100
2025-5-25 10:37:12.982	WT901BLE68(801231B9234C)	-0.150	0.782	0.077	-55.298	-9.094	-161.682	53.72	48.80	-130.36	-17.640	-41.846	-3.626	-0.17722	-0.49957	0.23840	0.81366	22.6	13111	100
2025-5-25 10:37:13.11	WT901BLE68(801231B9234C)	-0.134	0.854	0.078	-49.194	-19.226	-144.531	50.90	51.45	-131.82	-17.640	-41.846	-3.626	-0.17722	-0.49957	0.23840	0.81366	22.6	13111	100
2025-5-25 10:37:13.11	WT901BLE68(801231B9234C)	-0.103	0.912	0.081	-41.687	-24.292	-122.192	48.08	53.61	-133.36	-17.640	-41.846	-3.626	-0.17722	-0.49957	0.23840	0.81366	22.6	13111	100
2025-5-25 10:37:13.72	WT901BLE68(801231B9234C)	-0.083	0.946	0.099	-33.325	-25.635	-97.351	45.54	55.34	-134.66	-17.640	-41.846	-3.626	-0.17722	-0.49957	0.23840	0.81366	22.6	13111	100
2025-5-25 10:37:13.73	WT901BLE68(801231B9234C)	-0.064	0.956	0.124	-22.949	-23.987	-69.885	43.57	56.65	-135.48	-17.640	-41.846	-3.626	-0.17722	-0.49957	0.23840	0.81366	22.6	13111	100
2025-5-25 10:37:13.106	WT901BLE68(801231B9234C)	-0.073	0.952	0.162	-10.071	-18.066	-38.513	42.48	57.58	-135.50	-17.640	-41.846	-3.626	-0.17722	-0.49957	0.23840	0.81366	22.6	13111	100
2025-5-25 10:37:13.107	WT901BLE68(801231B9234C)	-0.083	0.960	0.193	5.676	-10.132	-5.249	42.57	58.18	-134.47	-17.640	-41.846	-3.626	-0.17722	-0.49957	0.23840	0.81366	22.6	13111	100
2025-5-25 10:37:13.134	WT901BLE68(801231B9234C)	-0.063	1.019	0.191	26.062	-1.282	36.072	44.10	58.36	-132.17	-17.640	-41.846	-3.626	-0.17722	-0.49957	0.23840	0.81366	22.6	13111	100
2025-5-25 10:37:13.134	WT901BLE68(801231B9234C)	-0.063	1.026	0.176	47.546	16.052	80.078	47.35	58.06	-128.35	23.030	-40.866	-8.918	-0.17722	-0.49957	0.23840	0.81366	22.6	13111	100
2025-5-25 10:37:13.192	WT901BLE68(801231B9234C)	-0.125	1.017	0.163	71.777	36.011	126.343	52.32	57.20	-123.02	23.030	-40.866	-8.918	-0.17722	-0.49957	0.23840	0.81366	22.6	13111	100
2025-5-25 10:37:13.192	WT901BLE68(801231B9234C)	-0.199	1.020	0.189	93.628	46.692	171.021	58.56	55.49	-116.68	23.030	-40.866	-8.918	-0.17722	-0.49957	0.23840	0.81366	22.6	13111	100
2025-5-25 10:37:13.221	WT901BLE68(801231B9234C)	-0.242	1.096	0.251	108.826	38.269	208.435	64.17	52.47	-112.31	23.030	-40.866	-8.918	-0.17722	-0.49957	0.23840	0.81366	22.6	13111	100
2025-5-25 10:37:13.221	WT901BLE68(801231B9234C)	-0.247	1.236	0.322	114.258	11.230	234.558	68.32	48.24	-110.72	23.030	-40.866	-8.918	-0.17722	-0.49957	0.23840	0.81366	22.6	13111	100
2025-5-25 10:37:13.251	WT901BLE68(801231B9234C)	-0.222	1.382	0.389	107.605	-20.874	244.141	71.45	43.40	-110.31	23.030	-40.866	-8.918	-0.17722	-0.49957	0.23840	0.81366	22.6	13111	100
2025-5-25 10:37:13.252	WT901BLE68(801231B9234C)	-0.147	1.493	0.394	93.323	-47.607	240.601	73.60	38.32	-110.86	23.030	-40.866	-8.918	-0.17722	-0.49957	0.23840	0.81366	22.6	13111	100
2025-5-25 10:37:13.339	WT901BLE68(801231B9234C)	-0.016	1.503	0.262	84.778	-45.166	227.539	75.28	33.38	-111.75	23.030	-40.866	-8.918	-0.17722	-0.49957	0.23840	0.81366	22.6	13111	100
2025-5-25 10:37:13.339	WT901BLE68(801231B9234C)	0.037	1.552	0.073	73.425	-12.817	239.624	76.96	28.53	-112.13	23.030	-40.866	-8.918	-0.17722	-0.49957	0.23840	0.81366	22.6	13111	100
2025-5-25 10:37:13.343	WT901BLE68(801231B9234C)	0.042	1.313	-0.026	61.829	53.467	240.540	78.84	23.65	-111.29	23.030	-40.866	-8.918	-0.17722	-0.49957	0.23840	0.81366	22.6	13111	100
2025-5-25 10:37:13.343	WT901BLE68(801231B9234C)	-0.034	1.209	-0.039	61.218	127.258	216.980	81.05	19.33	-108.99	23.030	-40.866	-8.918	-0.37073	-0.47546	0.46555	0.64780	22.6	13111	100
2025-5-25 10:37:13.373	WT901BLE68(801231B9234C)	-0.175	0.925	0.021	46.814	185.486	215.271	83.16	15.28	-105.48	23.030	-40.866	-8.918	-0.37073	-0.47546	0.46555	0.64780	22.6	13111	100
2025-5-25 10:37:13.373	WT901BLE68(801231B9234C)	-0.319	1.212	0.080	54.626	224.304	199.402	85.26	11.46	-101.09	23.030	-40.866	-8.918	-0.37073	-0.47546	0.46555	0.64780	22.6	13111	100
2025-5-25 10:37:13.438	WT901BLE68(801231B9234C)	-0.466	1.148	0.128	45.349	229.553	179.199	86.97	7.94	-96.51	23.030	-40.866	-8.918	-0.37073	-0.47546	0.46555	0.64780	22.6	13111	100
2025-5-25 10:37:13.438	WT901BLE68(801231B9234C)	-0.514	1.045	0.138	32.104	220.337	154.419	88.13	4.86	-92.14	23.030	-40.866	-8.918	-0.37073	-0.47546	0.46555	0.64780	22.6	13111	100
2025-5-25 10:37:13.465	WT901BLE68(801231B9234C)	-0.492	0.937	0.124	20.752	192.139	134.766	88.78	2.19	-88.20	23.030	-40.866	-8.918	-0.37073	-0.47546	0.46555	0.64780	22.6	13111	100
2025-5-25 10:37:13.465	WT901BLE68(801231B9234C)	-0.414	0.908	0.067	13.489	148.376	120.544	89.09	-0.12	-85.08	23.030	-40.866	-8.918	-0.37073	-0.47546	0.46555	0.64780	22.6	13111	100
2025-5-25 10:37:13.496	WT901BLE68(801231B9234C)	-0.375	0.896	0.045	9.705	113.770	110.229	89.19	-2.16	-82.76	23.030	-40.866	-8.918	-0.37073	-0.47546	0.46555	0.64780	22.6	13111	100
2025-5-25 10:37:13.496	WT901BLE68(801231B9234C)	-0.403	0.903	0.125	8.240	98.694	103.882	89.20	-4.02	-80.86	23.030	-40.866	-8.918	-0.37073	-0.47546	0.46555	0.64780	22.6	13111	100
2025-5-25 10:37:13.562	WT901BLE68(801231B9234C)	-0.432	0.866	0.186	7.935	91.675	95.520	89.15	-5.70	-79.13	23.030	-40.866	-8.918	-0.37073	-0.47546	0.46555	0.64780	22.6	13111	100
2025-5-25 10:37:13.562	WT901BLE68(801231B9234C)	-0.445	0.828	0.220	6.165	84.839	88.501	89.04	-7.20	-77.54	23.030	-40.866	-8.918	-0.37073	-0.47546	0.46555	0.64780	22.6	13111	100
2025-5-25 10:37:13.756	WT901BLE68(801231B9234C)	-0.482	0.824	0.231	6.775	76.416	82.825	88.89	-8.53	-76.10	23.030	-40.866	-8.918	-0.37073	-0.47546	0.46555	0.64780	22.6	13111	100
2025-5-25 10:37:13.756	WT901BLE68(801231B9234C)	-0.514	0.915	0.253	5.981	66.895	73.059	88.73	-9.66	-74.83	-29.988	-33.320	-4.312	-0.37073	-0.47546	0.46555	0.64780	22.6	13111	100
2025-5-25 10:37:13.756	WT901BLE68(801231B9234C)	-0.512	1.004	0.233	8.118	58.167	59.448	88.58	-10.52	-73.77	-29.988	-33.320	-4.312	-0.37073	-0.47546	0.46555	0.64780	22.6	13111	100
2025-5-25 10:37:13.757	WT901BLE68(801231B9234C)	-0.494	1.072	0.227	11.169	59.570	40.161	88.49	-11.05	-72.76	-29.988	-33.320	-4.312	-0.37073	-0.47546	0.46555	0.64780	22.6	13111	100
2025-5-25 10:37:13.757	WT901BLE68(801231B9234C)	-0.427	1.083	0.236	15.625	66.589	14.832	88.45	-11.08	-71.63	-29.988	-33.320	-4.312	-0.37073	-0.47546	0.46555	0.64780	22.6	13111	100
2025-5-25 10:37:13.757	WT901BLE68(801231B9234C)	-0.376	1.028	0.276	18.921	70.923	-14.038	88.47	-10.59	-70.39	-29.988	-33.320	-4.312	-0.37073	-0.47546	0.46555	0.64780	22.6	13111	100
2025-5-25 10:37:13.757	WT901BLE68(801231B9234C)	-0.451	0.991	0.296	28.259	66.833	-44.128	88.64	-9.49	-69.20	-29.988	-33.320	-4.312	-0.37073	-0.47546	0.46555	0.64780	22.6	13111	100
2025-5-25 10:37:13.757	WT901BLE68(801231B9234C)	-0.608	1.051	0.295	31.189	45.349	-70.801	88.97	-7.82	-68.30	-29.988	-33.320	-4.312	-0.37073	-0.47546	0.46555	0.64780	22.6	13111	100
2025-5-25 10:37:13.757	WT901BLE68(801231B9234C)	-0.712	1.276	0.292	34.363	5.798	-81.055	89.48	-5.87	-68.05	-29.988	-33.320	-4.312	-0.37073	-0.47546	0.46555	0.64780	22.6	13111	100
2025-5-25 10:37:13.757	WT901BLE68(801231B9234C)	-0.717	1.449	0.307	36.072	-43.701	-81.421	90.14	-3.88	-68.74	-29.988	-33.320	-4.312	-0.37073	-0.47546	0.46555	0.64780	22.6	13111	100
2025-5-25 10:37:13.822	WT901BLE68(801231B9234C)	-0.548	1.428	0.276	34.912	-93.018	-88.318	90.81	-1.81	-70.37	-29.988	-33.320	-4.312	-0.37073	-0.47546	0.46555	0.64780	22.6	13111	100
2025-5-25 10:37:13.822	WT901BLE68(801231B9234C)	-0.410	1.333	0.195	29.602	-134.827	-103.333	91.40	0.49	-72.87	-29.988	-33.320	-4.312	-0.37073	-0.47546	0.46555	0.64780	22.6	13111	100
2025-5-25 10:37:13.823	WT901BLE68(801231B9234C)	-0.349	1.340	0.177	19.592	-167.480	-129.211	91.68	3.27	-76.02	-29.988	-33.320	-4.312	-0.37073	-0.47546	0.46555	0.64780	22.6	13111	100
2025-5-25 10:37:13.823	WT901BLE68(801231B9234C)	-0.376	1.320	0.170	11.780	-193.115	-153.381	91.58	6.51	-79.70	-29.988	-33.320	-4.312	-0.49274	-0.57291	0.43381	0.49060	22.6	13111	100
2025-5-25 10:37:13.911	WT901BLE68(801231B9234C)	-0.344	1.328	0.123	4.639	-223.633	-174.500	91.03	10.16	-83.96	-29.988	-33.320	-4.312	-0.49274	-0.57291	0.43381	0.49060	22.6	13111	100
2025-5-25 10:37:13.912	WT901BLE68(801231B9234C)	-0.274	1.439	0.034	-2.197	-249.939	-179.199	89.97	13.92	-88.88	-29.988	-33.320	-4.312	-0.49274	-0.57291	0.43381	0.49060	22.6	13111	100
2025-5-25 10:37:13.913	WT901BLE68(801231B9234C)	-0.203	1.531	0.013	-17.761	-260.315	-178.406	88.26	17.51	-94.27	-29.988	-33.320	-4.312	-0.49274	-0.57291	0.43381	0.49060	22.6	13111	100
2025-5-25 10:37:13.913	WT901BLE68(801231B9234C)	-0.114	1.570	0.007	-37.109	-260.254	-178.528	85.81	20.82	-99.94	-29.988	-33.320	-4.312	-0.49274	-0.57291	0.43381	0.49060	22.6	13111	100
2025-5-25 10:37:13.971	WT901BLE68(801231B9234C)	-0.042	1.495	0.001	-56.885	-241.943	-181.335	82.71	23.87	-105.61	-29.988	-33.320	-4.312	-0.49274	-0.57291	0.43381	0.49060	22.6	13111	100
2025-5-25 10:37:13.971	WT901BLE68(801231B9234C)	0.016	1.390	-0.017	-73.547	-202.087	-185.852	79.19	26.72	-110.87	-29.988	-33.320	-4.312	-0.49274	-0.57291	0.43381	0.49060	22.6	13111	100
2025-5-25 10:37:13.972	WT901BLE68(801231B9234C)	0.038	1.274	-0.022	-84.473	-146.790	-189.819	75.58	29.50	-115.35	-29.988	-33.320	-4.312	-0.49274	-0.57291	0.43381	0.49060	22.6	13111	100
2025-5-25 10:37:13.972	WT901BLE68(801231B9234C)	-0.006	1.171	-0.020	-89.294	-86.731	-194.397	72.19	32.39	-118.83	-29.988	-33.320	-4.312	-0.49274	-0.57291	0.43381	0.49060	22.6	13111	100
2025-5-25 10:37:14.32	WT901BLE68(801231B9234C)	-0.083	1.106	-0.011	-88.562	-40.344	-196.167	69.14	35.43	-121.44	-5.488	-46.452	3.332	-0.49274	-0.57291	0.43381	0.49060	22.6	13111	100
2025-5-25 10:37:14.32	WT901BLE68(801231B9234C)	-0.119	1.024	-0.008	-86.304	-12.268	-194.946	66.35	38.57	-123.52	-5.488	-46.452	3.332	-0.49274	-0.57291	0.43381	0.49060	22.6	13111	100
2025-5-25 10:37:14.61	WT901BLE68(801231B9234C)	-0.145	0.965	-0.012	-82.275	0.244	-189.819	63.70	41.67	-125.42	-5.488	-46.452	3.332	-0.49274	-0.57291	0.43381	0.49060	22.6	13111	100
2025-5-25 10:37:14.61	WT901BLE68(801231B9234C)	-0.166	0.934	-0.015	-78.308	2.502	-180.908	61.03	44.57	-127.38	-5.488	-46.452	3.332	-0.49274	-0.57291	0.43381	0.49060	22.6	13111	100
2025-5-25 10:37:14.122	WT901BLE68(801231B9234C)	-0.159	0.896	0.000	-75.867	-2.869	-170.471	58.23	47.17	-129.59	-5.488	-46.452	3.332	-0.49274	-0.57291	0.43381	0.49060	22.6	13111	100
2025-5-25 10:37:14.122	WT901BLE68(801231B9234C)	-0.142	0.874	0.021	-74.341	-13.794	-158.325	54.83	49.98	-131.67	-5.488	-46.452	3.332	-0.49274	-0.57291	0.43381	0.49060	22.6	13111	100
2025-5-25 10:37:14.151	WT901BLE68(801231B9234C)	-0.108	0.928	0.038	-73.669	-15.808	-152.161	51.48	52.75	-133.19	-5.488	-46.452	3.332	-0.49274	-0.57291	0.43381	0.49060	22.6	13111	100
2025-5-25 10:37:14.152	WT901BLE68(801231B9234C)	-0.076	1.021	0.027	-70.740	-14.099	-135.193	47.94	55.23	-134.89	-5.488	-46.452	3.332	-0.49274	-0.57291	0.43381	0.49060	22.6	13111	100
2025-5-25 10:37:14.182	WT901BLE68(801231B9234C)	-0.083	1.029	0.036	-67.749	-3.662	-118.469	44.65	57.48	-136.29	-5.488	-46.452	3.332	-0.13220	-0.53406	0.14969	0.82144	22.6	13111	100
2025-5-25 10:37:14.183	WT901BLE68(801231B9234C)	-0.070	1.028	0.032	-59.082	5.310	-97.473	41.80	59.54	-137.26	-5.488	-46.452	3.332	-0.13220	-0.53406	0.14969	0.82144	22.6	13111	100
2025-5-25 10:37:14.211	WT901BLE68(801231B9234C)	-0.075	0.990	0.063	-47.363	15.869	-69.824	39.85	61.38	-137.41	-5.488	-46.452	3.332	-0.13220	-0.53406	0.14969	0.82144	22.6	13111	100
2025-5-25 10:37:14.211	WT901BLE68(801231B9234C)	-0.085	1.016	0.079	-31.799	20.142	-37.598	39.08	62.90	-136.51	-5.488	-46.452	3.332	-0.13220	-0.53406	0.14969	0.82144	22.6	13111	100
2025-5-25 10:37:14.272	WT901BLE68(801231B9234C)	-0.107	1.039	0.082	-11.963	29.724	5.188	40.05	64.03	-134.09	-5.488	-46.452	3.332	-0.13220	-0.53406	0.14969	0.82144	22.6	13111	100
2025-5-25 10:37:14.272	WT901BLE68(801231B9234C)	-0.122	1.022	0.106	7.996	42.419	48.096	43.24	64.71	-129.65	-5.488	-46.452	3.332	-0.13220	-0.53406	0.14969	0.82144	22.6	13111	100
2025-5-25 10:37:14.301	WT901BLE68(801231B9234C)	-0.156	0.964	0.115	29.663	51.697	94.543	48.44	64.74	-123.41	-5.488	-46.452	3.332	-0.13220	-0.53406	0.14969	0.82144	22.6	13111	100
2025-5-25 10:37:14.302	WT901BLE68(801231B9234C)	-0.217	0.876	0.164	50.964	65.979	134.216	55.66	63.97	-115.47	-5.488	-46.452	3.332	-0.13220	-0.53406	0.14969	0.82144	22.6	13111	100
2025-5-25 10:37:14.332	WT901BLE68(801231B9234C)	-0.237	0.867	0.222	67.444	59.814	163.269	63.31	62.24	-107.36	-5.488	-46.452	3.332	-0.13220	-0.53406	0.14969	0.82144	22.6	13111	100
2025-5-25 10:37:14.333	WT901BLE68(801231B9234C)	-0.256	0.947	0.281	78.613	35.095	187.073	69.91	59.48	-100.61	-5.488	-46.452	3.332	-0.13220	-0.53406	0.14969	0.82144	22.6	13111	100
2025-5-25 10:37:14.391	WT901BLE68(801231B9234C)	-0.246	1.104	0.330	83.435	2.258	200.134	73.84	55.84	-97.89	20.384	-43.022	-5.488	-0.13220	-0.53406	0.14969	0.82144	22.6	13111	100
2025-5-25 10:37:14.392	WT901BLE68(801231B9234C)	-0.195	1.263	0.321	83.191	-29.968	208.008	75.62	51.64	-98.66	20.384	-43.022	-5.488	-0.13220	-0.53406	0.14969	0.82144	22.6	13111	100
2025-5-25 10:37:14.422	WT901BLE68(801231B9234C)	-0.134	1.371	0.255	90.637	-37.720	208.801	76.93	47.24	-100.11	20.384	-43.022	-5.488	-0.13220	-0.53406	0.14969	0.82144	22.6	13111	100
2025-5-25 10:37:14.422	WT901BLE68(801231B9234C)	-0.085	1.345	0.153	85.205	-40.894	211.243	78.16	42.81	-101.62	20.384	-43.022	-5.488	-0.13220	-0.53406	0.14969	0.82144	22.6	13111	100
2025-5-25 10:37:14.451	WT901BLE68(801231B9234C)	-0.053	1.302	0.087	80.566	-15.747	216.248	79.62	38.29	-102.68	20.384	-43.022	-5.488	-0.13220	-0.53406	0.14969	0.82144	22.6	13111	100
2025-5-25 10:37:14.451	WT901BLE68(801231B9234C)	-0.088	1.191	0.062	78.247	24.719	219.788	81.52	33.77	-102.81	20.384	-43.022	-5.488	-0.13220	-0.53406	0.14969	0.82144	22.6	13111	100
2025-5-25 10:37:14.511	WT901BLE68(801231B9234C)	-0.146	1.137	0.104	75.439	62.683	214.783	83.73	29.36	-102.00	20.384	-43.022	-5.488	-0.13220	-0.53406	0.14969	0.82144	22.6	13111	100
2025-5-25 10:37:14.511	WT901BLE68(801231B9234C)	-0.221	1.106	0.170	72.083	91.431	203.918	86.03	25.14	-100.49	20.384	-43.022	-5.488	-0.13220	-0.53406	0.14969	0.82144	22.6	13111	100
2025-5-25 10:37:14.543	WT901BLE68(801231B9234C)	-0.265	1.103	0.229	65.430	105.225	190.613	88.17	21.17	-98.66	20.384	-43.022	-5.488	-0.13220	-0.53406	0.14969	0.82144	22.6	13111	100
2025-5-25 10:37:14.543	WT901BLE68(801231B9234C)	-0.289	1.106	0.224	57.678	112.671	175.598	90.00	17.46	-96.75	20.384	-43.022	-5.488	-0.13220	-0.53406	0.14969	0.82144	22.6	13111	100
2025-5-25 10:37:14.602	WT901BLE68(801231B9234C)	-0.294	1.120	0.174	49.561	119.507	165.039	91.52	14.01	-94.81	20.384	-43.022	-5.488	-0.42004	-0.54343	0.47998	0.54565	22.6	13111	100
2025-5-25 10:37:14.602	WT901BLE68(801231B9234C)	-0.366	1.128	0.188	41.748	127.502	158.630	92.76	10.68	-92.77	20.384	-43.022	-5.488	-0.42004	-0.54343	0.47998	0.54565	22.6	13111	100
2025-5-25 10:37:14.630	WT901BLE68(801231B9234C)	-0.389	1.119	0.303	32.837	127.991	148.865	93.70	7.52	-90.70	20.384	-43.022	-5.488	-0.42004	-0.54343	0.47998	0.54565	22.6	13111	100
2025-5-25 10:37:14.631	WT901BLE68(801231B9234C)	-0.419	1.043	0.429	25.513	118.835	139.404	94.31	4.63	-88.80	20.384	-43.022	-5.488	-0.42004	-0.54343	0.47998	0.54565	22.6	13111	100
2025-5-25 10:37:14.661	WT901BLE68(801231B9234C)	-0.542	1.027	0.490	16.907	108.765	141.602	94.64	1.82	-87.11	20.384	-43.022	-5.488	-0.42004	-0.54343	0.47998	0.54565	22.6	13111	100
2025-5-25 10:37:14.662	WT901BLE68(801231B9234C)	-0.635	1.049	0.574	11.902	87.036	132.019	94.71	-0.84	-85.76	20.384	-43.022	-5.488	-0.42004	-0.54343	0.47998	0.54565	22.6	13111	100
2025-5-25 10:37:14.721	WT901BLE68(801231B9234C)	-0.757	1.157	0.593	6.470	58.838	121.826	94.64	-3.15	-84.90	20.384	-43.022	-5.488	-0.42004	-0.54343	0.47998	0.54565	22.6	13111	100
2025-5-25 10:37:14.722	WT901BLE68(801231B9234C)	-0.789	1.067	0.565	-5.188	25.330	104.065	94.35	-5.13	-84.61	20.384	-43.022	-5.488	-0.42004	-0.54343	0.47998	0.54565	22.6	13111	100
2025-5-25 10:37:14.782	WT901BLE68(801231B9234C)	-0.585	1.075	0.523	-4.944	-9.888	62.988	94.03	-6.31	-84.92	20.384	-43.022	-5.488	-0.42004	-0.54343	0.47998	0.54565	22.6	13111	100
2025-5-25 10:37:14.782	WT901BLE68(801231B9234C)	-0.345	1.042	0.489	-8.057	-22.278	27.039	93.73	-6.65	-85.60	20.384	-43.022	-5.488	-0.42004	-0.54343	0.47998	0.54565	22.6	13111	100
2025-5-25 10:37:14.783	WT901BLE68(801231B9234C)	-0.303	0.979	0.481	-14.160	-6.897	-14.099	93.30	-6.26	-86.08	20.384	-43.022	-5.488	-0.42004	-0.54343	0.47998	0.54565	22.6	13111	100
2025-5-25 10:37:14.784	WT901BLE68(801231B9234C)	-0.391	1.189	0.446	-15.686	22.583	-57.739	92.72	-5.04	-86.01	-31.458	-32.928	1.274	-0.42004	-0.54343	0.47998	0.54565	22.6	13111	100
2025-5-25 10:37:14.842	WT901BLE68(801231B9234C)	-0.448	1.297	0.344	-28.931	55.176	-66.589	92.01	-3.38	-85.29	-31.458	-32.928	1.274	-0.42004	-0.54343	0.47998	0.54565	22.6	13111	100
2025-5-25 10:37:14.842	WT901BLE68(801231B9234C)	-0.523	1.272	0.320	-28.198	82.153	-74.097	91.19	-1.74	-83.95	-31.458	-32.928	1.274	-0.42004	-0.54343	0.47998	0.54565	22.6	13111	100
2025-5-25 10:37:14.872	WT901BLE68(801231B9234C)	-0.564	1.266	0.270	-25.269	83.496	-87.341	90.43	0.16	-82.44	-31.458	-32.928	1.274	-0.42004	-0.54343	0.47998	0.54565	22.6	13111	100
2025-5-25 10:37:14.873	WT901BLE68(801231B9234C)	-0.540	1.165	0.254	-26.428	59.692	-102.417	89.75	2.33	-81.22	-31.458	-32.928	1.274	-0.42004	-0.54343	0.47998	0.54565	22.6	13111	100
2025-5-25 10:37:14.901	WT901BLE68(801231B9234C)	-0.488	1.133	0.223	-21.484	12.756	-122.437	89.17	4.87	-80.80	-31.458	-32.928	1.274	-0.42004	-0.54343	0.47998	0.54565	22.6	13111	100
2025-5-25 10:37:14.902	WT901BLE68(801231B9234C)	-0.444	1.204	0.187	-18.433	-38.696	-138.977	88.59	7.75	-81.43	-31.458	-32.928	1.274	-0.42004	-0.54343	0.47998	0.54565	22.6	13111	100
2025-5-25 10:37:14.961	WT901BLE68(801231B9234C)	-0.418	1.220	0.110	-16.541	-82.825	-149.780	87.90	10.81	-83.03	-31.458	-32.928	1.274	-0.42004	-0.54343	0.47998	0.54565	22.6	13111	100
2025-5-25 10:37:14.961	WT901BLE68(801231B9234C)	-0.372	1.309	0.057	-15.869	-119.385	-154.175	87.01	13.92	-85.45	-31.458	-32.928	1.274	-0.42004	-0.54343	0.47998	0.54565	22.6	13111	100
2025-5-25 10:37:14.992	WT901BLE68(801231B9234C)	-0.284	1.410	0.062	-19.287	-148.193	-154.236	85.80	16.92	-88.58	-31.458	-32.928	1.274	-0.44266	-0.55551	0.39719	0.58102	22.6	13111	100
2025-5-25 10:37:14.992	WT901BLE68(801231B9234C)	-0.181	1.426	0.055	-27.588	-157.166	-158.630	84.19	19.81	-92.15	-31.458	-32.928	1.274	-0.44266	-0.55551	0.39719	0.58102	22.6	13111	100
2025-5-25 10:37:15.21	WT901BLE68(801231B9234C)	-0.114	1.361	0.057	-38.513	-148.132	-170.471	82.21	22.73	-95.80	-31.458	-32.928	1.274	-0.44266	-0.55551	0.39719	0.58102	22.6	13111	100
2025-5-25 10:37:15.22	WT901BLE68(801231B9234C)	-0.065	1.295	0.037	-47.791	-124.207	-185.791	79.95	25.80	-99.25	-31.458	-32.928	1.274	-0.44266	-0.55551	0.39719	0.58102	22.6	13111	100
2025-5-25 10:37:15.81	WT901BLE68(801231B9234C)	-0.058	1.231	0.029	-52.551	-88.867	-198.486	77.62	29.07	-102.25	-31.458	-32.928	1.274	-0.44266	-0.55551	0.39719	0.58102	22.6	13111	100
2025-5-25 10:37:15.81	WT901BLE68(801231B9234C)	-0.101	1.149	0.070	-53.955	-54.688	-210.388	75.37	32.57	-104.72	-31.458	-32.928	1.274	-0.44266	-0.55551	0.39719	0.58102	22.6	13111	100
2025-5-25 10:37:15.111	WT901BLE68(801231B9234C)	-0.144	1.092	0.101	-52.063	-35.706	-219.788	73.19	36.26	-106.90	-31.458	-32.928	1.274	-0.44266	-0.55551	0.39719	0.58102	22.6	13111	100
2025-5-25 10:37:15.111	WT901BLE68(801231B9234C)	-0.153	1.080	0.115	-51.392	-31.250	-223.206	70.88	39.99	-109.16	-31.458	-32.928	1.274	-0.44266	-0.55551	0.39719	0.58102	22.6	13111	100
2025-5-25 10:37:15.142	WT901BLE68(801231B9234C)	-0.142	1.071	0.123	-51.758	-34.180	-221.008	68.25	43.58	-111.75	-31.458	-32.928	1.274	-0.44266	-0.55551	0.39719	0.58102	22.6	13111	100
2025-5-25 10:37:15.142	WT901BLE68(801231B9234C)	-0.128	1.055	0.137	-52.551	-36.926	-215.393	65.22	46.93	-114.75	-31.458	-32.928	1.274	-0.44266	-0.55551	0.39719	0.58102	22.6	13111	100
2025-5-25 10:37:15.201	WT901BLE68(801231B9234C)	-0.100	1.024	0.148	-53.650	-40.588	-208.130	61.73	49.95	-118.21	5.880	-46.354	-4.508	-0.44266	-0.55551	0.39719	0.58102	22.6	13111	100
2025-5-25 10:37:15.202	WT901BLE68(801231B9234C)	-0.079	1.002	0.180	-56.580	-42.114	-198.730	57.61	52.56	-122.45	5.880	-46.354	-4.508	-0.44266	-0.55551	0.39719	0.58102	22.6	13111	100
2025-5-25 10:37:15.231	WT901BLE68(801231B9234C)	-0.036	0.999	0.201	-59.082	-46.997	-187.927	51.97	54.74	-128.98	5.880	-46.354	-4.508	-0.44266	-0.55551	0.39719	0.58102	22.6	13111	100
2025-5-25 10:37:15.231	WT901BLE68(801231B9234C)	0.056	0.994	0.200	-59.204	-53.162	-168.701	45.75	56.25	-136.06	5.880	-46.354	-4.508	-0.44266	-0.55551	0.39719	0.58102	22.6	13111	100
2025-5-25 10:37:15.261	WT901BLE68(801231B9234C)	0.212	0.954	0.185	-54.626	-50.415	-144.165	39.57	57.00	-143.06	5.880	-46.354	-4.508	-0.44266	-0.55551	0.39719	0.58102	22.6	13111	100
2025-5-25 10:37:15.262	WT901BLE68(801231B9234C)	0.296	0.929	0.163	-47.302	-38.452	-110.352	34.20	57.17	-149.23	5.880	-46.354	-4.508	-0.44266	-0.55551	0.39719	0.58102	22.6	13111	100
2025-5-25 10:37:15.321	WT901BLE68(801231B9234C)	0.339	0.889	0.129	-36.682	-6.897	-70.923	30.33	57.05	-153.80	5.880	-46.354	-4.508	-0.44266	-0.55551	0.39719	0.58102	22.6	13111	100
2025-5-25 10:37:15.321	WT901BLE68(801231B9234C)	0.217	0.912	0.156	-17.761	30.090	-20.081	28.43	56.96	-156.35	5.880	-46.354	-4.508	-0.44266	-0.55551	0.39719	0.58102	22.6	13111	100
2025-5-25 10:37:15.352	WT901BLE68(801231B9234C)	0.118	1.069	0.205	-2.747	57.007	30.579	28.68	56.95	-156.69	5.880	-46.354	-4.508	-0.44266	-0.55551	0.39719	0.58102	22.6	13111	100
2025-5-25 10:37:15.353	WT901BLE68(801231B9234C)	0.069	1.181	0.177	16.724	63.354	90.332	30.97	56.55	-154.99	5.880	-46.354	-4.508	-0.44266	-0.55551	0.39719	0.58102	22.6	13111	100
2025-5-25 10:37:15.382	WT901BLE68(801231B9234C)	0.008	1.114	0.127	40.771	69.458	140.686	35.05	55.57	-151.65	5.880	-46.354	-4.508	-0.44266	-0.55551	0.39719	0.58102	22.6	13111	100
2025-5-25 10:37:15.383	WT901BLE68(801231B9234C)	-0.081	1.065	0.193	60.669	71.350	176.758	40.31	53.98	-147.34	5.880	-46.354	-4.508	-0.08484	-0.49185	0.18066	0.84741	22.6	13111	100
2025-5-25 10:37:15.441	WT901BLE68(801231B9234C)	-0.160	1.128	0.284	72.021	52.124	198.486	45.63	51.58	-143.12	5.880	-46.354	-4.508	-0.08484	-0.49185	0.18066	0.84741	22.6	13111	100
2025-5-25 10:37:15.441	WT901BLE68(801231B9234C)	-0.147	1.279	0.325	74.341	18.372	207.214	50.23	48.42	-139.83	5.880	-46.354	-4.508	-0.08484	-0.49185	0.18066	0.84741	22.6	13111	100
2025-5-25 10:37:15.471	WT901BLE68(801231B9234C)	-0.083	1.412	0.279	73.975	-11.414	221.436	53.88	44.48	-137.66	5.880	-46.354	-4.508	-0.08484	-0.49185	0.18066	0.84741	22.6	13111	100
2025-5-25 10:37:15.471	WT901BLE68(801231B9234C)	-0.017	1.493	0.194	71.838	-16.663	238.037	56.99	40.02	-136.03	5.880	-46.354	-4.508	-0.08484	-0.49185	0.18066	0.84741	22.6	13111	100
2025-5-25 10:37:15.561	WT901BLE68(801231B9234C)	0.014	1.570	0.081	75.073	11.292	259.888	60.07	35.28	-134.23	5.880	-46.354	-4.508	-0.08484	-0.49185	0.18066	0.84741	22.6	13111	100
2025-5-25 10:37:15.561	WT901BLE68(801231B9234C)	-0.029	1.577	0.009	74.951	53.589	285.095	63.30	30.39	-131.80	5.880	-46.354	-4.508	-0.08484	-0.49185	0.18066	0.84741	22.6	13111	100
2025-5-25 10:37:15.563	WT901BLE68(801231B9234C)	-0.134	1.529	0.001	73.608	112.183	303.955	66.70	25.39	-128.50	5.880	-46.354	-4.508	-0.08484	-0.49185	0.18066	0.84741	22.6	13111	100
2025-5-25 10:37:15.563	WT901BLE68(801231B9234C)	-0.223	1.494	0.019	71.106	164.429	309.937	70.05	20.40	-124.33	5.880	-46.354	-4.508	-0.08484	-0.49185	0.18066	0.84741	22.6	13111	100
2025-5-25 10:37:15.591	WT901BLE68(801231B9234C)	-0.360	1.503	0.038	66.101	204.651	310.852	73.27	15.44	-118.76	5.880	-46.354	-4.508	-0.08484	-0.49185	0.18066	0.84741	22.6	13111	100
2025-5-25 10:37:15.591	WT901BLE68(801231B9234C)	-0.525	1.479	0.052	54.565	224.976	298.584	75.88	10.60	-112.69	-8.624	-44.982	-0.784	-0.08484	-0.49185	0.18066	0.84741	22.6	13111	100
2025-5-25 10:37:15.622	WT901BLE68(801231B9234C)	-0.688	1.433	0.080	40.283	215.332	279.541	77.65	5.97	-106.92	-8.624	-44.982	-0.784	-0.08484	-0.49185	0.18066	0.84741	22.6	13111	100
2025-5-25 10:37:15.622	WT901BLE68(801231B9234C)	-0.814	1.351	0.104	27.161	181.458	251.892	78.67	1.64	-101.95	-8.624	-44.982	-0.784	-0.08484	-0.49185	0.18066	0.84741	22.6	13111	100
2025-5-25 10:37:15.681	WT901BLE68(801231B9234C)	-0.757	1.240	0.145	14.282	129.639	217.346	79.00	-2.16	-98.14	-8.624	-44.982	-0.784	-0.08484	-0.49185	0.18066	0.84741	22.6	13111	100
2025-5-25 10:37:15.681	WT901BLE68(801231B9234C)	-0.551	1.070	0.205	11.841	97.778	174.622	79.11	-5.26	-95.23	-8.624	-44.982	-0.784	-0.08484	-0.49185	0.18066	0.84741	22.6	13111	100
2025-5-25 10:37:15.711	WT901BLE68(801231B9234C)	-0.474	0.922	0.266	8.728	54.077	127.319	79.12	-7.56	-93.27	-8.624	-44.982	-0.784	-0.08484	-0.49185	0.18066	0.84741	22.6	13111	100
2025-5-25 10:37:15.711	WT901BLE68(801231B9234C)	-0.605	0.884	0.369	5.920	38.330	82.153	79.11	-9.00	-92.07	-8.624	-44.982	-0.784	-0.08484	-0.49185	0.18066	0.84741	22.6	13111	100
2025-5-25 10:37:15.742	WT901BLE68(801231B9234C)	-0.772	0.896	0.409	2.380	46.082	50.537	79.01	-9.67	-91.01	-8.624	-44.982	-0.784	-0.08484	-0.49185	0.18066	0.84741	22.6	13111	100
2025-5-25 10:37:15.742	WT901BLE68(801231B9234C)	-0.810	0.962	0.419	-1.953	50.232	35.278	78.78	-9.82	-89.86	-8.624	-44.982	-0.784	-0.08484	-0.49185	0.18066	0.84741	22.6	13111	100
2025-5-25 10:37:15.831	WT901BLE68(801231B9234C)	-0.843	1.019	0.370	-7.568	42.542	41.992	78.46	-9.98	-88.84	-8.624	-44.982	-0.784	-0.59271	-0.40326	0.49173	0.49414	22.6	13111	100
2025-5-25 10:37:15.832	WT901BLE68(801231B9234C)	-0.757	0.905	0.385	-11.963	33.081	28.503	78.04	-10.07	-87.97	-8.624	-44.982	-0.784	-0.59271	-0.40326	0.49173	0.49414	22.6	13111	100
2025-5-25 10:37:15.832	WT901BLE68(801231B9234C)	-0.650	0.883	0.375	-9.766	11.719	10.986	77.72	-9.76	-87.55	-8.624	-44.982	-0.784	-0.59271	-0.40326	0.49173	0.49414	22.6	13111	100
2025-5-25 10:37:15.832	WT901BLE68(801231B9234C)	-0.559	0.967	0.386	-10.864	-6.958	-25.513	77.47	-8.97	-87.63	-8.624	-44.982	-0.784	-0.59271	-0.40326	0.49173	0.49414	22.6	13111	100
2025-5-25 10:37:15.861	WT901BLE68(801231B9234C)	-0.521	1.003	0.413	-12.390	-11.963	-60.730	77.24	-7.64	-88.04	-8.624	-44.982	-0.784	-0.59271	-0.40326	0.49173	0.49414	22.6	13111	100
2025-5-25 10:37:15.861	WT901BLE68(801231B9234C)	-0.511	1.135	0.359	-11.169	-8.301	-94.299	77.01	-5.64	-88.61	-8.624	-44.982	-0.784	-0.59271	-0.40326	0.49173	0.49414	22.6	13111	100
2025-5-25 10:37:15.921	WT901BLE68(801231B9234C)	-0.483	1.241	0.292	-12.207	1.526	-119.934	76.76	-3.09	-89.13	-8.624	-44.982	-0.784	-0.59271	-0.40326	0.49173	0.49414	22.6	13111	100
2025-5-25 10:37:15.921	WT901BLE68(801231B9234C)	-0.415	1.348	0.258	-12.207	3.723	-146.301	76.49	-0.05	-89.66	-8.624	-44.982	-0.784	-0.59271	-0.40326	0.49173	0.49414	22.6	13111	100
2025-5-25 10:37:15.952	WT901BLE68(801231B9234C)	-0.333	1.496	0.227	-13.489	1.221	-170.654	76.18	3.38	-90.33	-8.624	-44.982	-0.784	-0.59271	-0.40326	0.49173	0.49414	22.6	13111	100
2025-5-25 10:37:15.952	WT901BLE68(801231B9234C)	-0.304	1.590	0.215	-14.893	1.953	-195.862	75.82	7.22	-91.13	-8.624	-44.982	-0.784	-0.59271	-0.40326	0.49173	0.49414	22.6	13111	100
2025-5-25 10:37:16.11	WT901BLE68(801231B9234C)	-0.320	1.606	0.212	-15.259	-0.793	-218.262	75.37	11.44	-92.08	-26.264	-34.398	-9.898	-0.59271	-0.40326	0.49173	0.49414	22.6	13111	100
2025-5-25 10:37:16.11	WT901BLE68(801231B9234C)	-0.343	1.600	0.203	-11.536	-13.550	-232.666	74.84	15.89	-93.31	-26.264	-34.398	-9.898	-0.59271	-0.40326	0.49173	0.49414	22.6	13111	100
2025-5-25 10:37:16.41	WT901BLE68(801231B9234C)	-0.347	1.614	0.177	-7.507	-36.316	-239.441	74.16	20.33	-95.03	-26.264	-34.398	-9.898	-0.59271	-0.40326	0.49173	0.49414	22.6	13111	100
2025-5-25 10:37:16.41	WT901BLE68(801231B9234C)	-0.299	1.651	0.141	-3.784	-65.491	-237.427	73.20	24.56	-97.39	-26.264	-34.398	-9.898	-0.59271	-0.40326	0.49173	0.49414	22.6	13111	100
2025-5-25 10:37:16.71	WT901BLE68(801231B9234C)	-0.227	1.628	0.109	-1.587	-93.018	-230.103	71.84	28.41	-100.44	-26.264	-34.398	-9.898	-0.59271	-0.40326	0.49173	0.49414	22.6	13111	100
2025-5-25 10:37:16.71	WT901BLE68(801231B9234C)	-0.174	1.511	0.114	-2.625	-109.314	-226.074	70.04	31.90	-104.07	-26.264	-34.398	-9.898	-0.59271	-0.40326	0.49173	0.49414	22.6	13111	100
2025-5-25 10:37:16.165	WT901BLE68(801231B9234C)	-0.137	1.363	0.118	-2.930	-116.821	-224.792	67.81	35.11	-108.12	-26.264	-34.398	-9.898	-0.59271	-0.40326	0.49173	0.49414	22.6	13111	100
2025-5-25 10:37:16.165	WT901BLE68(801231B9234C)	-0.136	1.225	0.128	-6.287	-117.249	-228.760	65.16	38.15	-112.48	-26.264	-34.398	-9.898	-0.59271	-0.40326	0.49173	0.49414	22.6	13111	100
2025-5-25 10:37:16.166	WT901BLE68(801231B9234C)	-0.116	1.127	0.105	-8.118	-113.037	-229.736	62.11	41.05	-117.10	-26.264	-34.398	-9.898	-0.59271	-0.40326	0.49173	0.49414	22.6	13111	100
2025-5-25 10:37:16.166	WT901BLE68(801231B9234C)	-0.121	1.057	0.102	-9.888	-107.300	-226.746	58.73	43.74	-121.85	-26.264	-34.398	-9.898	-0.59271	-0.40326	0.49173	0.49414	22.6	13111	100
2025-5-25 10:37:16.194	WT901BLE68(801231B9234C)	-0.107	0.996	0.078	-10.498	-101.318	-219.116	55.10	46.18	-126.67	-26.264	-34.398	-9.898	-0.59271	-0.40326	0.49173	0.49414	22.6	13111	100
2025-5-25 10:37:16.195	WT901BLE68(801231B9234C)	-0.112	0.923	0.096	-11.353	-95.459	-207.581	51.31	48.34	-131.35	-26.264	-34.398	-9.898	-0.17117	-0.49597	0.20990	0.82495	22.6	13111	100
2025-5-25 10:37:16.251	WT901BLE68(801231B9234C)	-0.111	0.849	0.125	-13.916	-94.727	-195.984	47.32	50.28	-135.83	-26.264	-34.398	-9.898	-0.17117	-0.49597	0.20990	0.82495	22.6	13111	100
2025-5-25 10:37:16.252	WT901BLE68(801231B9234C)	-0.081	0.807	0.143	-17.578	-97.717	-181.335	42.96	51.92	-140.33	-26.264	-34.398	-9.898	-0.17117	-0.49597	0.20990	0.82495	22.6	13111	100
2025-5-25 10:37:16.282	WT901BLE68(801231B9234C)	-0.033	0.767	0.152	-22.034	-96.130	-162.720	38.36	53.16	-144.78	-26.264	-34.398	-9.898	-0.17117	-0.49597	0.20990	0.82495	22.6	13111	100
2025-5-25 10:37:16.282	WT901BLE68(801231B9234C)	0.020	0.711	0.148	-25.024	-85.327	-142.090	33.87	54.06	-148.88	-26.264	-34.398	-9.898	-0.17117	-0.49597	0.20990	0.82495	22.6	13111	100
2025-5-25 10:37:16.311	WT901BLE68(801231B9234C)	0.065	0.654	0.150	-25.940	-66.956	-121.216	29.81	54.81	-152.30	-26.264	-34.398	-9.898	-0.17117	-0.49597	0.20990	0.82495	22.6	13111	100
2025-5-25 10:37:16.311	WT901BLE68(801231B9234C)	0.101	0.618	0.125	-22.217	-41.687	-98.328	26.46	55.61	-154.86	-26.264	-34.398	-9.898	-0.17117	-0.49597	0.20990	0.82495	22.6	13111	100
2025-5-25 10:37:16.373	WT901BLE68(801231B9234C)	0.096	0.606	0.123	-13.611	-8.972	-71.655	24.18	56.65	-156.28	-26.264	-34.398	-9.898	-0.17117	-0.49597	0.20990	0.82495	22.6	13111	100
2025-5-25 10:37:16.374	WT901BLE68(801231B9234C)	0.038	0.614	0.143	-3.113	19.165	-43.823	23.15	58.02	-156.38	-26.264	-34.398	-9.898	-0.17117	-0.49597	0.20990	0.82495	22.6	13111	100
2025-5-25 10:37:16.405	WT901BLE68(801231B9234C)	-0.021	0.670	0.168	9.399	34.424	-11.169	23.49	59.51	-155.18	-26.264	-34.398	-9.898	-0.17117	-0.49597	0.20990	0.82495	22.6	13111	100
2025-5-25 10:37:16.405	WT901BLE68(801231B9234C)	-0.073	0.720	0.209	22.095	37.842	27.710	25.44	60.82	-152.41	24.402	-38.122	-13.818	-0.17117	-0.49597	0.20990	0.82495	22.6	13111	100
2025-5-25 10:37:16.433	WT901BLE68(801231B9234C)	-0.093	0.781	0.262	34.119	32.898	68.542	29.05	61.67	-148.06	24.402	-38.122	-13.818	-0.17117	-0.49597	0.20990	0.82495	22.6	13111	100
2025-5-25 10:37:16.434	WT901BLE68(801231B9234C)	-0.084	0.931	0.276	45.227	23.865	110.901	33.71	61.46	-143.22	24.402	-38.122	-13.818	-0.17117	-0.49597	0.20990	0.82495	22.6	13111	100
2025-5-25 10:37:16.492	WT901BLE68(801231B9234C)	-0.031	1.210	0.231	57.617	22.766	162.903	38.33	59.52	-140.01	24.402	-38.122	-13.818	-0.17117	-0.49597	0.20990	0.82495	22.6	13111	100
2025-5-25 10:37:16.492	WT901BLE68(801231B9234C)	-0.017	1.376	0.171	75.562	40.466	211.243	44.12	56.88	-135.66	24.402	-38.122	-13.818	-0.17117	-0.49597	0.20990	0.82495	22.6	13111	100
2025-5-25 10:37:16.521	WT901BLE68(801231B9234C)	-0.129	1.370	0.173	93.018	68.237	243.469	50.66	53.73	-130.64	24.402	-38.122	-13.818	-0.17117	-0.49597	0.20990	0.82495	22.6	13111	100
2025-5-25 10:37:16.521	WT901BLE68(801231B9234C)	-0.245	1.456	0.227	104.675	84.839	271.606	57.34	50.02	-125.52	24.402	-38.122	-13.818	-0.17117	-0.49597	0.20990	0.82495	22.6	13111	100
2025-5-25 10:37:16.554	WT901BLE68(801231B9234C)	-0.316	1.569	0.351	106.873	73.975	289.551	63.35	45.52	-121.10	24.402	-38.122	-13.818	-0.17117	-0.49597	0.20990	0.82495	22.6	13111	100
2025-5-25 10:37:16.555	WT901BLE68(801231B9234C)	-0.330	1.635	0.462	98.145	32.532	287.292	67.85	40.37	-118.31	24.402	-38.122	-13.818	-0.17117	-0.49597	0.20990	0.82495	22.6	13111	100
2025-5-25 10:37:16.642	WT901BLE68(801231B9234C)	-0.271	1.647	0.464	86.487	-15.747	273.987	70.81	34.88	-117.25	24.402	-38.122	-13.818	-0.27292	-0.47882	0.38065	0.74246	22.6	13111	100
2025-5-25 10:37:16.642	WT901BLE68(801231B9234C)	-0.200	1.625	0.299	86.853	-30.762	255.310	73.07	29.44	-116.94	24.402	-38.122	-13.818	-0.27292	-0.47882	0.38065	0.74246	22.6	13111	100
2025-5-25 10:37:16.643	WT901BLE68(801231B9234C)	-0.149	1.686	0.125	81.848	-27.832	245.361	75.04	24.27	-116.65	24.402	-38.122	-13.818	-0.27292	-0.47882	0.38065	0.74246	22.6	13111	100
2025-5-25 10:37:16.643	WT901BLE68(801231B9234C)	-0.135	1.569	0.039	72.998	10.742	231.018	76.96	19.46	-115.78	24.402	-38.122	-13.818	-0.27292	-0.47882	0.38065	0.74246	22.6	13111	100
2025-5-25 10:37:16.673	WT901BLE68(801231B9234C)	-0.155	1.415	0.109	62.683	58.350	206.116	78.83	15.25	-114.11	24.402	-38.122	-13.818	-0.27292	-0.47882	0.38065	0.74246	22.6	13111	100
2025-5-25 10:37:16.674	WT901BLE68(801231B9234C)	-0.164	1.253	0.263	52.002	91.125	168.884	80.47	11.84	-111.90	24.402	-38.122	-13.818	-0.27292	-0.47882	0.38065	0.74246	22.6	13111	100
2025-5-25 10:37:16.732	WT901BLE68(801231B9234C)	-0.190	1.085	0.288	47.607	114.258	130.188	81.87	9.26	-109.43	24.402	-38.122	-13.818	-0.27292	-0.47882	0.38065	0.74246	22.6	13111	100
2025-5-25 10:37:16.732	WT901BLE68(801231B9234C)	-0.274	1.061	0.216	40.894	138.977	107.727	83.10	7.29	-106.64	24.402	-38.122	-13.818	-0.27292	-0.47882	0.38065	0.74246	22.6	13111	100
2025-5-25 10:37:16.764	WT901BLE68(801231B9234C)	-0.304	1.061	0.211	25.330	166.199	92.834	84.00	5.71	-103.40	24.402	-38.122	-13.818	-0.27292	-0.47882	0.38065	0.74246	22.6	13111	100
2025-5-25 10:37:16.764	WT901BLE68(801231B9234C)	-0.389	1.017	0.228	11.780	185.303	98.572	84.56	4.20	-99.75	24.402	-38.122	-13.818	-0.27292	-0.47882	0.38065	0.74246	22.6	13111	100
2025-5-25 10:37:16.852	WT901BLE68(801231B9234C)	-0.482	0.966	0.240	-3.113	190.979	104.492	84.74	2.61	-95.91	24.402	-38.122	-13.818	-0.27292	-0.47882	0.38065	0.74246	22.6	13111	100
2025-5-25 10:37:16.852	WT901BLE68(801231B9234C)	-0.533	0.890	0.256	-13.000	176.453	112.732	84.55	0.86	-92.19	-24.010	-38.416	0.000	-0.27292	-0.47882	0.38065	0.74246	22.6	13111	100
2025-5-25 10:37:16.853	WT901BLE68(801231B9234C)	-0.569	0.858	0.284	-17.822	150.574	117.615	84.14	-0.96	-88.90	-24.010	-38.416	0.000	-0.27292	-0.47882	0.38065	0.74246	22.6	13111	100
2025-5-25 10:37:16.853	WT901BLE68(801231B9234C)	-0.620	0.817	0.334	-22.644	116.455	120.605	83.53	-2.84	-86.21	-24.010	-38.416	0.000	-0.27292	-0.47882	0.38065	0.74246	22.6	13111	100
2025-5-25 10:37:16.884	WT901BLE68(801231B9234C)	-0.673	0.784	0.346	-21.118	78.369	114.441	82.86	-4.67	-84.23	-24.010	-38.416	0.000	-0.27292	-0.47882	0.38065	0.74246	22.6	13111	100
2025-5-25 10:37:16.884	WT901BLE68(801231B9234C)	-0.685	0.892	0.419	-18.433	43.640	97.534	82.26	-6.25	-82.98	-24.010	-38.416	0.000	-0.27292	-0.47882	0.38065	0.74246	22.6	13111	100
2025-5-25 10:37:16.942	WT901BLE68(801231B9234C)	-0.672	0.955	0.408	-18.799	19.897	78.491	81.72	-7.48	-82.31	-24.010	-38.416	0.000	-0.27292	-0.47882	0.38065	0.74246	22.6	13111	100
2025-5-25 10:37:16.943	WT901BLE68(801231B9234C)	-0.558	0.923	0.368	-18.372	3.113	46.448	81.20	-8.20	-82.06	-24.010	-38.416	0.000	-0.27292	-0.47882	0.38065	0.74246	22.6	13111	100
2025-5-25 10:37:16.976	WT901BLE68(801231B9234C)	-0.422	0.906	0.330	-17.944	-10.315	14.709	80.74	-8.33	-82.17	-24.010	-38.416	0.000	-0.27292	-0.47882	0.38065	0.74246	22.6	13111	100
2025-5-25 10:37:16.977	WT901BLE68(801231B9234C)	-0.370	0.993	0.300	-18.250	-11.292	-22.583	80.34	-7.76	-82.50	-24.010	-38.416	0.000	-0.27292	-0.47882	0.38065	0.74246	22.6	13111	100
2025-5-25 10:37:17.14	WT901BLE68(801231B9234C)	-0.358	1.178	0.244	-15.808	-6.104	-61.707	79.95	-6.43	-82.89	-24.010	-38.416	0.000	-0.27292	-0.47882	0.38065	0.74246	22.6	13111	100
2025-5-25 10:37:17.15	WT901BLE68(801231B9234C)	-0.359	1.390	0.212	-18.372	17.700	-90.393	79.54	-4.44	-83.05	-24.010	-38.416	0.000	-0.58829	-0.46359	0.44397	0.49170	22.6	13111	100
2025-5-25 10:37:17.32	WT901BLE68(801231B9234C)	-0.360	1.415	0.180	-16.846	38.574	-115.173	79.11	-1.93	-82.81	-24.010	-38.416	0.000	-0.58829	-0.46359	0.44397	0.49170	22.6	13111	100
2025-5-25 10:37:17.32	WT901BLE68(801231B9234C)	-0.349	1.367	0.167	-10.742	46.936	-136.719	78.81	1.02	-82.42	-24.010	-38.416	0.000	-0.58829	-0.46359	0.44397	0.49170	22.6	13111	100
2025-5-25 10:37:17.126	WT901BLE68(801231B9234C)	-0.423	1.276	0.198	-4.761	38.452	-154.541	78.68	4.30	-82.10	-24.010	-38.416	0.000	-0.58829	-0.46359	0.44397	0.49170	22.6	13111	100
2025-5-25 10:37:17.126	WT901BLE68(801231B9234C)	-0.470	1.220	0.187	10.437	12.085	-172.363	78.76	7.79	-82.26	-24.010	-38.416	0.000	-0.58829	-0.46359	0.44397	0.49170	22.6	13111	100
2025-5-25 10:37:17.140	WT901BLE68(801231B9234C)	-0.464	1.254	0.155	24.109	-43.518	-176.514	78.96	11.30	-83.31	-24.010	-38.416	0.000	-0.58829	-0.46359	0.44397	0.49170	22.6	13111	100
2025-5-25 10:37:17.140	WT901BLE68(801231B9234C)	-0.473	1.260	0.101	30.273	-107.971	-169.739	79.04	14.47	-85.58	-24.010	-38.416	0.000	-0.58829	-0.46359	0.44397	0.49170	22.6	13111	100
2025-5-25 10:37:17.176	WT901BLE68(801231B9234C)	-0.454	1.327	0.054	36.072	-165.771	-160.339	78.84	17.21	-89.03	-24.010	-38.416	0.000	-0.58829	-0.46359	0.44397	0.49170	22.6	13111	100
2025-5-25 10:37:17.176	WT901BLE68(801231B9234C)	-0.370	1.393	0.047	32.776	-226.868	-149.353	78.07	19.46	-93.74	-24.010	-38.416	0.000	-0.58829	-0.46359	0.44397	0.49170	22.6	13111	100
2025-5-25 10:37:17.219	WT901BLE68(801231B9234C)	-0.287	1.326	0.060	19.897	-269.226	-150.330	76.59	21.30	-99.50	-24.010	-38.416	0.000	-0.58829	-0.46359	0.44397	0.49170	22.6	13111	100
2025-5-25 10:37:17.219	WT901BLE68(801231B9234C)	-0.193	1.304	0.001	3.540	-291.016	-164.185	74.42	22.99	-105.97	-24.010	-38.416	0.000	-0.58829	-0.46359	0.44397	0.49170	22.6	13111	100
2025-5-25 10:37:17.242	WT901BLE68(801231B9234C)	-0.123	1.308	-0.043	-14.832	-287.659	-173.767	71.63	24.58	-112.75	-24.010	-38.416	0.000	-0.58829	-0.46359	0.44397	0.49170	22.6	13111	100
2025-5-25 10:37:17.242	WT901BLE68(801231B9234C)	-0.044	1.244	-0.078	-31.677	-263.306	-182.190	68.42	26.08	-119.33	-14.504	-42.826	-4.018	-0.58829	-0.46359	0.44397	0.49170	22.6	13111	100
2025-5-25 10:37:17.271	WT901BLE68(801231B9234C)	0.010	1.173	-0.083	-45.044	-221.069	-186.157	65.12	27.64	-125.26	-14.504	-42.826	-4.018	-0.58829	-0.46359	0.44397	0.49170	22.6	13111	100
2025-5-25 10:37:17.271	WT901BLE68(801231B9234C)	0.014	1.109	-0.077	-54.871	-173.767	-184.021	61.79	29.19	-130.44	-14.504	-42.826	-4.018	-0.58829	-0.46359	0.44397	0.49170	22.6	13111	100
2025-5-25 10:37:17.334	WT901BLE68(801231B9234C)	-0.017	1.047	-0.020	-61.035	-121.643	-184.326	58.66	30.95	-134.65	-14.504	-42.826	-4.018	-0.58829	-0.46359	0.44397	0.49170	22.6	13111	100
2025-5-25 10:37:17.335	WT901BLE68(801231B9234C)	-0.064	1.002	0.036	-64.636	-82.886	-187.378	55.71	32.99	-138.14	-14.504	-42.826	-4.018	-0.58829	-0.46359	0.44397	0.49170	22.6	13111	100
2025-5-25 10:37:17.363	WT901BLE68(801231B9234C)	-0.090	1.020	0.058	-67.871	-59.509	-190.796	52.78	35.24	-141.25	-14.504	-42.826	-4.018	-0.58829	-0.46359	0.44397	0.49170	22.6	13111	100
2025-5-25 10:37:17.364	WT901BLE68(801231B9234C)	-0.100	1.066	0.063	-70.557	-40.955	-186.707	49.82	37.57	-144.11	-14.504	-42.826	-4.018	-0.58829	-0.46359	0.44397	0.49170	22.6	13111	100
2025-5-25 10:37:17.422	WT901BLE68(801231B9234C)	-0.103	1.061	0.073	-73.730	-26.489	-181.763	46.82	39.93	-146.66	-14.504	-42.826	-4.018	-0.58829	-0.46359	0.44397	0.49170	22.6	13111	100
2025-5-25 10:37:17.422	WT901BLE68(801231B9234C)	-0.079	1.059	0.076	-76.050	-18.311	-174.194	43.68	42.37	-148.90	-14.504	-42.826	-4.018	-0.58829	-0.46359	0.44397	0.49170	22.6	13111	100
2025-5-25 10:37:17.453	WT901BLE68(801231B9234C)	-0.049	1.105	0.064	-77.087	-12.024	-159.546	40.29	44.85	-150.91	-14.504	-42.826	-4.018	-0.08813	-0.42566	0.21741	0.87387	22.6	13111	100
2025-5-25 10:37:17.453	WT901BLE68(801231B9234C)	0.034	1.129	0.073	-74.341	-3.296	-139.038	36.89	47.18	-152.73	-14.504	-42.826	-4.018	-0.08813	-0.42566	0.21741	0.87387	22.6	13111	100
2025-5-25 10:37:17.484	WT901BLE68(801231B9234C)	0.191	1.083	0.068	-66.528	0.549	-109.558	33.78	49.23	-154.13	-14.504	-42.826	-4.018	-0.08813	-0.42566	0.21741	0.87387	22.6	13111	100
2025-5-25 10:37:17.484	WT901BLE68(801231B9234C)	0.260	0.997	0.068	-52.429	12.573	-70.801	31.47	50.98	-154.74	-14.504	-42.826	-4.018	-0.08813	-0.42566	0.21741	0.87387	22.6	13111	100
2025-5-25 10:37:17.541	WT901BLE68(801231B9234C)	0.191	0.959	0.105	-31.799	40.039	-26.611	29.90	51.55	-156.18	-14.504	-42.826	-4.018	-0.08813	-0.42566	0.21741	0.87387	22.6	13111	100
2025-5-25 10:37:17.541	WT901BLE68(801231B9234C)	0.077	1.018	0.194	-4.028	75.684	18.433	30.05	51.87	-156.53	-14.504	-42.826	-4.018	-0.08813	-0.42566	0.21741	0.87387	22.6	13111	100
2025-5-25 10:37:17.662	WT901BLE68(801231B9234C)	-0.002	1.093	0.240	22.217	83.130	67.810	31.93	52.02	-155.30	-14.504	-42.826	-4.018	-0.08813	-0.42566	0.21741	0.87387	22.6	13111	100
2025-5-25 10:37:17.662	WT901BLE68(801231B9234C)	-0.119	1.003	0.312	46.265	70.496	110.779	35.27	51.50	-152.86	-14.504	-42.826	-4.018	-0.08813	-0.42566	0.21741	0.87387	22.6	13111	100
2025-5-25 10:37:17.663	WT901BLE68(801231B9234C)	-0.224	0.967	0.472	60.791	31.799	133.301	39.02	50.08	-150.30	-14.504	-42.826	-4.018	-0.08813	-0.42566	0.21741	0.87387	22.6	13111	100
2025-5-25 10:37:17.663	WT901BLE68(801231B9234C)	-0.158	1.003	0.530	68.054	-37.109	146.240	42.18	47.46	-148.74	18.620	-42.434	-9.212	-0.08813	-0.42566	0.21741	0.87387	22.6	13111	100
2025-5-25 10:37:17.664	WT901BLE68(801231B9234C)	-0.028	0.985	0.444	82.336	-92.224	152.710	44.48	43.73	-148.49	18.620	-42.434	-9.212	-0.08813	-0.42566	0.21741	0.87387	22.6	13111	100
2025-5-25 10:37:17.664	WT901BLE68(801231B9234C)	0.063	1.155	0.342	91.492	-104.614	156.433	46.64	39.59	-148.80	18.620	-42.434	-9.212	-0.08813	-0.42566	0.21741	0.87387	22.6	13111	100
2025-5-25 10:37:17.752	WT901BLE68(801231B9234C)	0.125	1.330	0.293	87.769	-90.576	168.274	48.82	35.37	-149.05	18.620	-42.434	-9.212	-0.08813	-0.42566	0.21741	0.87387	22.6	13111	100
2025-5-25 10:37:17.752	WT901BLE68(801231B9234C)	0.173	1.374	0.303	78.064	-48.950	174.683	51.12	31.40	-148.72	18.620	-42.434	-9.212	-0.08813	-0.42566	0.21741	0.87387	22.6	13111	100
2025-5-25 10:37:17.752	WT901BLE68(801231B9234C)	0.112	1.333	0.271	71.655	16.418	178.467	53.64	28.03	-147.46	18.620	-42.434	-9.212	-0.08813	-0.42566	0.21741	0.87387	22.6	13111	100
2025-5-25 10:37:17.752	WT901BLE68(801231B9234C)	-0.013	1.295	0.230	66.589	88.806	182.129	56.46	25.36	-144.98	18.620	-42.434	-9.212	-0.08813	-0.42566	0.21741	0.87387	22.6	13111	100
2025-5-25 10:37:17.784	WT901BLE68(801231B9234C)	-0.128	1.213	0.232	60.120	141.479	186.951	59.47	23.13	-141.43	18.620	-42.434	-9.212	-0.08813	-0.42566	0.21741	0.87387	22.6	13111	100
2025-5-25 10:37:17.784	WT901BLE68(801231B9234C)	-0.248	1.082	0.251	54.871	174.194	184.021	62.48	21.10	-137.11	18.620	-42.434	-9.212	-0.08813	-0.42566	0.21741	0.87387	22.6	13111	100
2025-5-25 10:37:17.814	WT901BLE68(801231B9234C)	-0.329	1.010	0.262	48.340	182.129	178.101	65.29	19.14	-132.43	18.620	-42.434	-9.212	-0.08813	-0.42566	0.21741	0.87387	22.6	13111	100
2025-5-25 10:37:17.815	WT901BLE68(801231B9234C)	-0.378	0.957	0.274	41.748	169.373	175.293	67.71	17.08	-127.83	18.620	-42.434	-9.212	-0.31229	-0.35684	0.45294	0.75488	22.6	13111	100
2025-5-25 10:37:17.871	WT901BLE68(801231B9234C)	-0.394	0.925	0.286	33.020	137.695	172.791	69.62	14.78	-123.73	18.620	-42.434	-9.212	-0.31229	-0.35684	0.45294	0.75488	22.6	13111	100
2025-5-25 10:37:17.871	WT901BLE68(801231B9234C)	-0.382	0.964	0.312	28.076	99.731	173.157	71.03	12.21	-120.40	18.620	-42.434	-9.212	-0.31229	-0.35684	0.45294	0.75488	22.6	13111	100
2025-5-25 10:37:17.900	WT901BLE68(801231B9234C)	-0.337	0.988	0.343	23.071	69.275	174.561	72.04	9.40	-117.79	18.620	-42.434	-9.212	-0.31229	-0.35684	0.45294	0.75488	22.6	13111	100
2025-5-25 10:37:17.900	WT901BLE68(801231B9234C)	-0.332	0.946	0.358	19.165	53.589	181.580	72.74	6.36	-115.60	18.620	-42.434	-9.212	-0.31229	-0.35684	0.45294	0.75488	22.6	13111	100
2025-5-25 10:37:17.932	WT901BLE68(801231B9234C)	-0.388	0.951	0.388	18.616	51.636	176.025	73.26	3.34	-113.59	18.620	-42.434	-9.212	-0.31229	-0.35684	0.45294	0.75488	22.6	13111	100
2025-5-25 10:37:17.932	WT901BLE68(801231B9234C)	-0.481	0.994	0.446	13.855	52.979	168.884	73.61	0.49	-111.62	18.620	-42.434	-9.212	-0.31229	-0.35684	0.45294	0.75488	22.6	13111	100
2025-5-25 10:37:17.960	WT901BLE68(801231B9234C)	-0.622	0.967	0.498	7.935	47.668	154.785	73.72	-2.13	-109.77	18.620	-42.434	-9.212	-0.31229	-0.35684	0.45294	0.75488	22.6	13111	100
2025-5-25 10:37:17.960	WT901BLE68(801231B9234C)	-0.750	0.991	0.521	4.211	32.776	126.831	73.67	-4.32	-108.26	18.620	-42.434	-9.212	-0.31229	-0.35684	0.45294	0.75488	22.6	13111	100
2025-5-25 10:37:18.21	WT901BLE68(801231B9234C)	-0.742	1.045	0.531	0.000	5.981	90.942	73.54	-5.92	-107.35	18.620	-42.434	-9.212	-0.31229	-0.35684	0.45294	0.75488	22.6	13111	100
2025-5-25 10:37:18.21	WT901BLE68(801231B9234C)	-0.578	1.011	0.467	1.404	-26.733	54.749	73.45	-6.97	-107.22	18.620	-42.434	-9.212	-0.31229	-0.35684	0.45294	0.75488	22.6	13111	100
2025-5-25 10:37:18.53	WT901BLE68(801231B9234C)	-0.424	1.000	0.435	3.967	-48.706	15.137	73.51	-7.39	-107.81	-30.674	-32.732	-2.254	-0.31229	-0.35684	0.45294	0.75488	22.6	13111	100
2025-5-25 10:37:18.53	WT901BLE68(801231B9234C)	-0.411	1.020	0.411	0.977	-49.744	-19.165	73.60	-7.16	-108.76	-30.674	-32.732	-2.254	-0.31229	-0.35684	0.45294	0.75488	22.6	13111	100
2025-5-25 10:37:18.83	WT901BLE68(801231B9234C)	-0.446	1.234	0.347	-0.671	-30.762	-50.476	73.63	-6.23	-109.67	-30.674	-32.732	-2.254	-0.31229	-0.35684	0.45294	0.75488	22.6	13111	100
2025-5-25 10:37:18.83	WT901BLE68(801231B9234C)	-0.466	1.289	0.312	-7.996	-4.578	-72.021	73.51	-4.72	-110.19	-30.674	-32.732	-2.254	-0.31229	-0.35684	0.45294	0.75488	22.6	13111	100
2025-5-25 10:37:18.232	WT901BLE68(801231B9234C)	-0.436	1.255	0.286	-10.742	5.859	-92.102	73.27	-2.77	-110.50	-30.674	-32.732	-2.254	-0.31229	-0.35684	0.45294	0.75488	22.6	13111	100
2025-5-25 10:37:18.233	WT901BLE68(801231B9234C)	-0.416	1.346	0.268	-10.498	8.606	-118.408	73.04	-0.36	-110.83	-30.674	-32.732	-2.254	-0.31229	-0.35684	0.45294	0.75488	22.6	13111	100
2025-5-25 10:37:18.233	WT901BLE68(801231B9234C)	-0.422	1.393	0.253	-10.681	-1.648	-140.137	72.81	2.42	-111.41	-30.674	-32.732	-2.254	-0.31229	-0.35684	0.45294	0.75488	22.6	13111	100
2025-5-25 10:37:18.233	WT901BLE68(801231B9234C)	-0.427	1.388	0.197	-7.690	-21.912	-156.677	72.55	5.43	-112.41	-30.674	-32.732	-2.254	-0.31229	-0.35684	0.45294	0.75488	22.6	13111	100
2025-5-25 10:37:18.233	WT901BLE68(801231B9234C)	-0.425	1.489	0.148	-4.578	-47.302	-166.809	72.28	8.49	-113.96	-30.674	-32.732	-2.254	-0.31229	-0.35684	0.45294	0.75488	22.6	13111	100
2025-5-25 10:37:18.233	WT901BLE68(801231B9234C)	-0.415	1.499	0.142	-3.784	-75.989	-172.607	71.87	11.48	-116.05	-30.674	-32.732	-2.254	-0.31229	-0.35684	0.45294	0.75488	22.6	13111	100
2025-5-25 10:37:18.264	WT901BLE68(801231B9234C)	-0.348	1.510	0.093	-1.770	-114.807	-179.504	71.25	14.30	-118.91	-30.674	-32.732	-2.254	-0.31229	-0.35684	0.45294	0.75488	22.6	13111	100
2025-5-25 10:37:18.264	WT901BLE68(801231B9234C)	-0.235	1.562	0.087	-3.906	-144.653	-184.998	70.30	16.95	-122.51	-30.674	-32.732	-2.254	-0.31229	-0.35684	0.45294	0.75488	22.6	13111	100
2025-5-25 10:37:18.293	WT901BLE68(801231B9234C)	-0.157	1.531	0.136	-12.329	-154.175	-199.890	68.93	19.56	-126.59	-30.674	-32.732	-2.254	-0.28021	-0.37369	0.44104	0.76630	22.6	13111	100
2025-5-25 10:37:18.293	WT901BLE68(801231B9234C)	-0.100	1.485	0.126	-20.203	-148.438	-220.459	67.15	22.38	-130.93	-30.674	-32.732	-2.254	-0.28021	-0.37369	0.44104	0.76630	22.6	13111	100
2025-5-25 10:37:18.384	WT901BLE68(801231B9234C)	-0.083	1.390	0.125	-28.564	-129.944	-239.014	64.99	25.47	-135.31	-30.674	-32.732	-2.254	-0.28021	-0.37369	0.44104	0.76630	22.6	13111	100
2025-5-25 10:37:18.384	WT901BLE68(801231B9234C)	-0.086	1.277	0.123	-35.950	-106.934	-255.920	62.48	28.84	-139.66	-30.674	-32.732	-2.254	-0.28021	-0.37369	0.44104	0.76630	22.6	13111	100
2025-5-25 10:37:18.384	WT901BLE68(801231B9234C)	-0.094	1.220	0.119	-41.809	-88.867	-269.043	59.60	32.43	-144.09	-30.674	-32.732	-2.254	-0.28021	-0.37369	0.44104	0.76630	22.6	13111	100
2025-5-25 10:37:18.385	WT901BLE68(801231B9234C)	-0.088	1.204	0.119	-44.800	-76.416	-273.071	56.32	36.01	-148.72	-30.674	-32.732	-2.254	-0.28021	-0.37369	0.44104	0.76630	22.6	13111	100
2025-5-25 10:37:18.414	WT901BLE68(801231B9234C)	-0.122	1.195	0.145	-47.668	-69.702	-270.813	52.61	39.38	-153.72	-30.674	-32.732	-2.254	-0.28021	-0.37369	0.44104	0.76630	22.6	13111	100
2025-5-25 10:37:18.414	WT901BLE68(801231B9234C)	-0.067	1.154	0.175	-52.917	-70.374	-266.724	48.29	42.32	-159.35	6.370	-46.648	0.588	-0.28021	-0.37369	0.44104	0.76630	22.6	13111	100
2025-5-25 10:37:18.443	WT901BLE68(801231B9234C)	-0.051	1.071	0.186	-57.068	-69.763	-256.897	43.28	44.65	-165.84	6.370	-46.648	0.588	-0.28021	-0.37369	0.44104	0.76630	22.6	13111	100
2025-5-25 10:37:18.443	WT901BLE68(801231B9234C)	-0.053	0.998	0.186	-59.509	-63.171	-244.141	37.77	46.35	-172.93	6.370	-46.648	0.588	-0.28021	-0.37369	0.44104	0.76630	22.6	13111	100
2025-5-25 10:37:18.502	WT901BLE68(801231B9234C)	-0.032	0.933	0.219	-63.293	-54.993	-227.844	32.08	47.49	179.91	6.370	-46.648	0.588	-0.28021	-0.37369	0.44104	0.76630	22.6	13111	100
2025-5-25 10:37:18.502	WT901BLE68(801231B9234C)	0.008	0.874	0.216	-64.636	-51.025	-210.083	26.43	48.07	172.93	6.370	-46.648	0.588	-0.28021	-0.37369	0.44104	0.76630	22.6	13111	100
2025-5-25 10:37:18.530	WT901BLE68(801231B9234C)	0.114	0.823	0.175	-66.284	-46.265	-189.331	21.08	48.12	166.39	6.370	-46.648	0.588	-0.28021	-0.37369	0.44104	0.76630	22.6	13111	100
2025-5-25 10:37:18.530	WT901BLE68(801231B9234C)	0.245	0.771	0.144	-62.866	-33.325	-158.325	16.44	47.79	160.71	6.370	-46.648	0.588	-0.28021	-0.37369	0.44104	0.76630	22.6	13111	100
2025-5-25 10:37:18.561	WT901BLE68(801231B9234C)	0.297	0.708	0.132	-55.603	-13.916	-117.920	12.85	47.33	156.28	6.370	-46.648	0.588	-0.28021	-0.37369	0.44104	0.76630	22.6	13111	100
2025-5-25 10:37:18.561	WT901BLE68(801231B9234C)	0.204	0.692	0.138	-44.250	9.827	-75.195	10.50	46.95	153.24	6.370	-46.648	0.588	-0.28021	-0.37369	0.44104	0.76630	22.6	13111	100
2025-5-25 10:37:18.622	WT901BLE68(801231B9234C)	0.036	0.688	0.182	-32.166	39.490	-29.480	9.42	46.88	151.63	6.370	-46.648	0.588	-0.28021	-0.37369	0.44104	0.76630	22.6	13111	100
2025-5-25 10:37:18.622	WT901BLE68(801231B9234C)	-0.111	0.761	0.225	-17.944	55.908	26.611	9.77	47.06	151.64	6.370	-46.648	0.588	-0.28021	-0.37369	0.44104	0.76630	22.6	13111	100
2025-5-25 10:37:18.653	WT901BLE68(801231B9234C)	-0.133	0.973	0.207	-4.089	54.260	92.529	11.70	47.10	153.45	6.370	-46.648	0.588	0.25070	-0.35980	0.18546	0.87930	22.6	13111	100
2025-5-25 10:37:18.653	WT901BLE68(801231B9234C)	-0.118	1.117	0.155	14.771	53.589	170.044	15.39	46.66	157.24	6.370	-46.648	0.588	0.25070	-0.35980	0.18546	0.87930	22.6	13111	100
2025-5-25 10:37:18.683	WT901BLE68(801231B9234C)	-0.143	1.098	0.120	37.231	60.974	234.436	20.79	45.66	162.87	6.370	-46.648	0.588	0.25070	-0.35980	0.18546	0.87930	22.6	13111	100
2025-5-25 10:37:18.683	WT901BLE68(801231B9234C)	-0.203	1.087	0.115	61.157	75.317	283.752	27.36	43.96	169.68	6.370	-46.648	0.588	0.25070	-0.35980	0.18546	0.87930	22.6	13111	100
2025-5-25 10:37:18.741	WT901BLE68(801231B9234C)	-0.273	1.230	0.210	76.782	83.801	321.167	34.48	41.46	177.06	6.370	-46.648	0.588	0.25070	-0.35980	0.18546	0.87930	22.6	13111	100
2025-5-25 10:37:18.741	WT901BLE68(801231B9234C)	-0.311	1.443	0.353	80.139	70.374	338.623	41.19	37.94	-175.91	6.370	-46.648	0.588	0.25070	-0.35980	0.18546	0.87930	22.6	13111	100
2025-5-25 10:37:18.770	WT901BLE68(801231B9234C)	-0.193	1.685	0.410	76.111	31.555	341.797	46.70	33.33	-170.11	6.370	-46.648	0.588	0.25070	-0.35980	0.18546	0.87930	22.6	13111	100
2025-5-25 10:37:18.770	WT901BLE68(801231B9234C)	-0.208	1.884	0.293	76.050	4.395	346.375	51.00	27.81	-165.66	6.370	-46.648	0.588	0.25070	-0.35980	0.18546	0.87930	22.6	13111	100
2025-5-25 10:37:18.832	WT901BLE68(801231B9234C)	-0.164	2.002	0.125	69.946	0.977	327.087	54.31	22.18	-162.22	6.370	-46.648	0.588	0.25070	-0.35980	0.18546	0.87930	22.6	13111	100
2025-5-25 10:37:18.833	WT901BLE68(801231B9234C)	-0.107	1.904	-0.036	61.218	24.780	327.087	57.08	16.61	-158.97	6.370	-46.648	0.588	0.25070	-0.35980	0.18546	0.87930	22.6	13111	100
2025-5-25 10:37:18.862	WT901BLE68(801231B9234C)	-0.155	1.690	-0.104	59.814	80.566	324.829	59.56	11.40	-155.12	4.214	-45.962	1.176	0.25070	-0.35980	0.18546	0.87930	22.6	13111	100
2025-5-25 10:37:18.862	WT901BLE68(801231B9234C)	-0.224	1.524	-0.023	52.673	133.667	307.251	61.71	6.92	-150.21	4.214	-45.962	1.176	0.25070	-0.35980	0.18546	0.87930	22.6	13111	100
2025-5-25 10:37:18.891	WT901BLE68(801231B9234C)	-0.357	1.385	0.108	45.959	169.617	277.893	63.37	3.25	-144.56	4.214	-45.962	1.176	0.25070	-0.35980	0.18546	0.87930	22.6	13111	100
2025-5-25 10:37:18.891	WT901BLE68(801231B9234C)	-0.427	1.291	0.153	37.415	179.871	236.694	64.53	0.34	-138.91	4.214	-45.962	1.176	0.25070	-0.35980	0.18546	0.87930	22.6	13111	100
2025-5-25 10:37:18.951	WT901BLE68(801231B9234C)	-0.422	1.281	0.066	28.687	172.302	198.364	65.25	-1.87	-133.66	4.214	-45.962	1.176	0.25070	-0.35980	0.18546	0.87930	22.6	13111	100
2025-5-25 10:37:18.952	WT901BLE68(801231B9234C)	-0.438	1.280	-0.009	22.644	158.447	172.791	65.68	-3.65	-128.89	4.214	-45.962	1.176	0.25070	-0.35980	0.18546	0.87930	22.6	13111	100
2025-5-25 10:37:19.11	WT901BLE68(801231B9234C)	-0.485	1.251	0.013	17.639	136.230	152.954	65.92	-5.16	-124.63	4.214	-45.962	1.176	0.25070	-0.35980	0.18546	0.87930	22.6	13111	100
2025-5-25 10:37:19.11	WT901BLE68(801231B9234C)	-0.517	1.236	0.138	11.902	120.728	135.376	66.03	-6.50	-120.92	4.214	-45.962	1.176	0.25070	-0.35980	0.18546	0.87930	22.6	13111	100
2025-5-25 10:37:19.12	WT901BLE68(801231B9234C)	-0.434	1.087	0.216	2.930	138.672	118.103	65.87	-7.45	-117.34	4.214	-45.962	1.176	0.25070	-0.35980	0.18546	0.87930	22.6	13111	100
2025-5-25 10:37:19.12	WT901BLE68(801231B9234C)	-0.468	0.937	0.299	-5.249	171.875	110.046	65.41	-7.87	-113.27	4.214	-45.962	1.176	0.25070	-0.35980	0.18546	0.87930	22.6	13111	100
2025-5-25 10:37:19.73	WT901BLE68(801231B9234C)	-0.679	0.908	0.326	-13.123	197.876	96.313	64.73	-7.83	-108.79	4.214	-45.962	1.176	-0.54102	-0.27618	0.46002	0.64752	22.6	13111	100
2025-5-25 10:37:19.73	WT901BLE68(801231B9234C)	-0.880	1.019	0.309	-21.790	200.989	83.618	63.88	-7.35	-104.22	4.214	-45.962	1.176	-0.54102	-0.27618	0.46002	0.64752	22.6	13111	100
2025-5-25 10:37:19.162	WT901BLE68(801231B9234C)	-0.958	1.069	0.265	-29.968	163.879	85.693	62.95	-6.90	-100.10	4.214	-45.962	1.176	-0.54102	-0.27618	0.46002	0.64752	22.6	13111	100
2025-5-25 10:37:19.162	WT901BLE68(801231B9234C)	-0.914	0.920	0.223	-29.968	107.605	76.050	62.09	-6.78	-96.95	4.214	-45.962	1.176	-0.54102	-0.27618	0.46002	0.64752	22.6	13111	100
2025-5-25 10:37:19.163	WT901BLE68(801231B9234C)	-0.770	0.846	0.191	-19.531	57.007	46.265	61.53	-6.67	-94.99	4.214	-45.962	1.176	-0.54102	-0.27618	0.46002	0.64752	22.6	13111	100
2025-5-25 10:37:19.163	WT901BLE68(801231B9234C)	-0.704	0.740	0.194	-12.573	23.560	21.790	61.25	-6.43	-93.98	4.214	-45.962	1.176	-0.54102	-0.27618	0.46002	0.64752	22.6	13111	100
2025-5-25 10:37:19.195	WT901BLE68(801231B9234C)	-0.614	1.032	0.192	0.000	-3.967	-11.414	61.29	-5.89	-93.80	4.214	-45.962	1.176	-0.54102	-0.27618	0.46002	0.64752	22.6	13111	100
2025-5-25 10:37:19.195	WT901BLE68(801231B9234C)	-0.597	1.038	0.199	9.888	-10.437	-37.354	61.59	-5.01	-94.11	4.214	-45.962	1.176	-0.54102	-0.27618	0.46002	0.64752	22.6	13111	100
2025-5-25 10:37:19.224	WT901BLE68(801231B9234C)	-0.854	1.045	0.194	18.677	-3.784	-74.158	62.08	-3.56	-94.64	4.214	-45.962	1.176	-0.54102	-0.27618	0.46002	0.64752	22.6	13111	100
2025-5-25 10:37:19.224	WT901BLE68(801231B9234C)	-1.052	1.248	0.180	30.457	1.892	-120.117	62.78	-1.28	-95.44	-31.262	-26.950	-15.190	-0.54102	-0.27618	0.46002	0.64752	22.6	13111	100
2025-5-25 10:37:19.254	WT901BLE68(801231B9234C)	-1.184	1.400	0.222	41.687	-21.667	-184.021	63.63	1.87	-96.82	-31.262	-26.950	-15.190	-0.54102	-0.27618	0.46002	0.64752	22.6	13111	100
2025-5-25 10:37:19.254	WT901BLE68(801231B9234C)	-1.126	1.625	0.097	57.861	-68.604	-279.968	64.57	6.20	-99.63	-31.262	-26.950	-15.190	-0.54102	-0.27618	0.46002	0.64752	22.6	13111	100
2025-5-25 10:37:19.312	WT901BLE68(801231B9234C)	-1.082	2.099	-0.125	77.942	-112.854	-377.991	65.41	11.95	-104.02	-31.262	-26.950	-15.190	-0.54102	-0.27618	0.46002	0.64752	22.6	13111	100
2025-5-25 10:37:19.312	WT901BLE68(801231B9234C)	-1.005	2.627	-0.262	91.492	-126.221	-465.759	65.74	19.15	-109.67	-31.262	-26.950	-15.190	-0.54102	-0.27618	0.46002	0.64752	22.6	13111	100
2025-5-25 10:37:19.340	WT901BLE68(801231B9234C)	-1.093	2.887	-0.316	109.009	-114.807	-524.353	65.37	27.55	-116.04	-31.262	-26.950	-15.190	-0.54102	-0.27618	0.46002	0.64752	22.6	13111	100
2025-5-25 10:37:19.340	WT901BLE68(801231B9234C)	-1.099	2.771	-0.237	120.483	-78.247	-561.279	64.14	36.80	-122.81	-31.262	-26.950	-15.190	-0.54102	-0.27618	0.46002	0.64752	22.6	13111	100
2025-5-25 10:37:19.371	WT901BLE68(801231B9234C)	-1.147	2.464	-0.273	152.283	-46.387	-567.322	62.09	46.41	-130.07	-31.262	-26.950	-15.190	-0.54102	-0.27618	0.46002	0.64752	22.6	13111	100
2025-5-25 10:37:19.371	WT901BLE68(801231B9234C)	-0.930	2.283	-0.453	182.739	-27.039	-565.247	58.83	55.96	-138.54	-31.262	-26.950	-15.190	-0.54102	-0.27618	0.46002	0.64752	22.6	13111	100
2025-5-25 10:37:19.432	WT901BLE68(801231B9234C)	-0.565	2.012	-0.449	207.214	-50.842	-536.011	52.15	64.58	-150.51	-31.262	-26.950	-15.190	-0.54102	-0.27618	0.46002	0.64752	22.6	13111	100
2025-5-25 10:37:19.432	WT901BLE68(801231B9234C)	-0.343	1.704	-0.434	223.022	-78.003	-508.057	38.24	71.17	-169.79	-31.262	-26.950	-15.190	-0.54102	-0.27618	0.46002	0.64752	22.6	13111	100
2025-5-25 10:37:19.460	WT901BLE68(801231B9234C)	-0.175	1.436	-0.377	228.577	-62.866	-471.497	14.36	74.92	161.31	-31.262	-26.950	-15.190	0.22504	-0.57614	0.19360	0.76144	22.6	13111	100
2025-5-25 10:37:19.461	WT901BLE68(801231B9234C)	-0.097	1.170	-0.314	240.601	-45.288	-424.316	-11.17	73.80	129.27	-31.262	-26.950	-15.190	0.22504	-0.57614	0.19360	0.76144	22.6	13111	100
2025-5-25 10:37:19.491	WT901BLE68(801231B9234C)	-0.042	1.106	-0.324	250.671	-34.729	-391.785	-26.21	69.90	107.00	-31.262	-26.950	-15.190	0.22504	-0.57614	0.19360	0.76144	22.6	13111	100
2025-5-25 10:37:19.491	WT901BLE68(801231B9234C)	0.051	1.032	-0.269	249.268	-15.442	-339.783	-33.32	65.63	92.61	-31.262	-26.950	-15.190	0.22504	-0.57614	0.19360	0.76144	22.6	13111	100
2025-5-25 10:37:19.551	WT901BLE68(801231B9234C)	-0.018	0.802	-0.193	253.967	-3.601	-285.217	-35.91	61.95	82.77	-31.262	-26.950	-15.190	0.22504	-0.57614	0.19360	0.76144	22.6	13111	100
2025-5-25 10:37:19.551	WT901BLE68(801231B9234C)	-0.162	0.660	0.022	244.812	14.771	-247.559	-36.34	58.96	75.28	-31.262	-26.950	-15.190	0.22504	-0.57614	0.19360	0.76144	22.6	13111	100
2025-5-25 10:37:19.581	WT901BLE68(801231B9234C)	-0.317	0.720	0.206	216.064	19.226	-206.360	-35.76	56.77	69.21	-31.262	-26.950	-15.190	0.22504	-0.57614	0.19360	0.76144	22.6	13111	100
2025-5-25 10:37:19.581	WT901BLE68(801231B9234C)	-0.381	0.638	0.333	162.170	2.869	-152.893	-34.51	55.07	65.02	-31.262	-26.950	-15.190	0.22504	-0.57614	0.19360	0.76144	22.6	13111	100
2025-5-25 10:37:19.613	WT901BLE68(801231B9234C)	-0.370	0.417	0.419	114.441	7.202	-102.112	-33.08	53.99	62.42	-31.262	-26.950	-15.190	0.22504	-0.57614	0.19360	0.76144	22.6	13111	100
2025-5-25 10:37:19.613	WT901BLE68(801231B9234C)	-0.288	0.223	0.394	72.510	14.465	-63.171	-31.55	53.53	60.99	-31.262	-26.950	-15.190	0.22504	-0.57614	0.19360	0.76144	22.6	13111	100
2025-5-25 10:37:19.671	WT901BLE68(801231B9234C)	-0.296	0.110	0.503	27.954	60.913	-40.344	-30.81	53.85	59.70	46.844	6.860	11.760	0.22504	-0.57614	0.19360	0.76144	22.6	13111	100
2025-5-25 10:37:19.671	WT901BLE68(801231B9234C)	-1.147	-0.132	0.432	-15.808	117.798	-12.756	-31.24	55.42	58.23	46.844	6.860	11.760	0.22504	-0.57614	0.19360	0.76144	22.6	13111	100
2025-5-25 10:37:19.701	WT901BLE68(801231B9234C)	-1.955	-0.531	-0.004	-50.049	176.208	-28.992	-33.68	57.86	55.35	46.844	6.860	11.760	0.22504	-0.57614	0.19360	0.76144	22.6	13111	100
2025-5-25 10:37:19.701	WT901BLE68(801231B9234C)	-1.341	-1.009	0.072	-37.781	165.039	-20.996	-37.68	60.85	51.05	46.844	6.860	11.760	0.22504	-0.57614	0.19360	0.76144	22.6	13111	100
2025-5-25 10:37:19.732	WT901BLE68(801231B9234C)	-1.390	-1.211	-0.047	-22.705	115.845	-70.496	-42.07	62.52	46.50	46.844	6.860	11.760	0.22504	-0.57614	0.19360	0.76144	22.6	13111	100
2025-5-25 10:37:19.732	WT901BLE68(801231B9234C)	-1.699	-1.124	0.045	-26.489	147.522	-132.324	-49.27	63.11	38.87	46.844	6.860	11.760	0.22504	-0.57614	0.19360	0.76144	22.6	13111	100
2025-5-25 10:37:19.791	WT901BLE68(801231B9234C)	-1.423	-0.954	0.078	-23.926	81.848	-155.884	-56.84	62.21	31.06	46.844	6.860	11.760	0.22504	-0.57614	0.19360	0.76144	22.6	13111	100
2025-5-25 10:37:19.791	WT901BLE68(801231B9234C)	-1.009	-0.754	-0.160	-24.292	1.648	-174.377	-61.54	59.72	26.41	46.844	6.860	11.760	0.22504	-0.57614	0.19360	0.76144	22.6	13111	100
2025-5-25 10:37:19.820	WT901BLE68(801231B9234C)	-0.911	-0.687	-0.302	0.000	-15.625	-168.457	-64.09	56.65	23.82	46.844	6.860	11.760	0.22504	-0.57614	0.19360	0.76144	22.6	13111	100
2025-5-25 10:37:19.820	WT901BLE68(801231B9234C)	-0.676	-0.590	-0.376	8.240	1.831	-186.707	-66.61	53.47	20.74	46.844	6.860	11.760	0.22504	-0.57614	0.19360	0.76144	22.6	13111	100
2025-5-25 10:37:19.852	WT901BLE68(801231B9234C)	-0.431	-0.447	-0.542	29.419	-42.419	-144.104	-67.31	50.62	19.51	46.844	6.860	11.760	0.22504	-0.57614	0.19360	0.76144	22.6	13111	100
2025-5-25 10:37:19.852	WT901BLE68(801231B9234C)	-0.370	-0.336	-0.338	49.133	-11.902	-99.731	-67.42	48.30	18.61	46.844	6.860	11.760	0.71692	-0.55191	0.25171	0.34341	22.6	13111	100
2025-5-25 10:37:19.912	WT901BLE68(801231B9234C)	-0.303	-0.330	-0.170	30.151	-5.615	-55.237	-67.53	47.20	17.58	46.844	6.860	11.760	0.71692	-0.55191	0.25171	0.34341	22.6	13111	100
2025-5-25 10:37:19.912	WT901BLE68(801231B9234C)	-0.504	-0.333	-0.200	12.756	-22.827	-33.142	-67.51	46.56	17.24	46.844	6.860	11.760	0.71692	-0.55191	0.25171	0.34341	22.6	13111	100
2025-5-25 10:37:19.941	WT901BLE68(801231B9234C)	-0.901	-0.095	0.232	22.400	-3.540	7.690	-67.36	46.49	17.00	46.844	6.860	11.760	0.71692	-0.55191	0.25171	0.34341	22.6	13111	100
2025-5-25 10:37:19.941	WT901BLE68(801231B9234C)	-0.679	-0.200	0.184	-34.912	-101.868	-17.517	-66.91	46.19	18.01	46.844	6.860	11.760	0.71692	-0.55191	0.25171	0.34341	22.6	13111	100
2025-5-25 10:37:19.972	WT901BLE68(801231B9234C)	-0.063	-0.513	-0.026	-39.917	-217.957	-14.038	-64.77	44.70	22.00	46.844	6.860	11.760	0.71692	-0.55191	0.25171	0.34341	22.6	13111	100
2025-5-25 10:37:19.972	WT901BLE68(801231B9234C)	0.048	-0.621	0.086	-29.053	-211.792	-8.301	-61.92	42.65	27.06	46.844	6.860	11.760	0.71692	-0.55191	0.25171	0.34341	22.6	13111	100
2025-5-25 10:37:20.32	WT901BLE68(801231B9234C)	-0.212	-0.620	0.271	-33.447	-119.263	2.075	-60.60	41.33	30.20	46.844	6.860	11.760	0.71692	-0.55191	0.25171	0.34341	22.6	13111	100
2025-5-25 10:37:20.33	WT901BLE68(801231B9234C)	-0.257	-0.432	0.580	-37.109	-63.416	0.488	-60.07	40.78	31.77	46.844	6.860	11.760	0.71692	-0.55191	0.25171	0.34341	22.6	13111	100
2025-5-25 10:37:20.61	WT901BLE68(801231B9234C)	-0.223	-0.611	0.308	-46.082	-61.646	3.235	-60.25	40.14	33.15	35.182	29.008	19.110	0.71692	-0.55191	0.25171	0.34341	22.6	13111	100
2025-5-25 10:37:20.61	WT901BLE68(801231B9234C)	-0.214	-0.749	0.045	-55.298	-36.133	-4.028	-60.79	39.63	34.11	35.182	29.008	19.110	0.71692	-0.55191	0.25171	0.34341	22.6	13111	100
2025-5-25 10:37:20.92	WT901BLE68(801231B9234C)	-0.586	-0.771	0.060	-22.949	29.236	-2.075	-61.78	39.59	34.00	35.182	29.008	19.110	0.71692	-0.55191	0.25171	0.34341	22.6	13111	100
2025-5-25 10:37:20.92	WT901BLE68(801231B9234C)	-0.665	-0.705	0.208	1.038	73.975	-11.597	-62.97	39.99	32.47	35.182	29.008	19.110	0.71692	-0.55191	0.25171	0.34341	22.6	13111	100
2025-5-25 10:37:20.152	WT901BLE68(801231B9234C)	-0.439	-0.792	0.271	0.977	49.255	-11.475	-64.12	40.23	30.96	35.182	29.008	19.110	0.71692	-0.55191	0.25171	0.34341	22.6	13111	100
2025-5-25 10:37:20.152	WT901BLE68(801231B9234C)	-0.566	-0.880	0.191	3.174	40.588	-11.536	-64.90	40.28	29.94	35.182	29.008	19.110	0.71692	-0.55191	0.25171	0.34341	22.6	13111	100
2025-5-25 10:37:20.182	WT901BLE68(801231B9234C)	-0.616	-0.936	0.132	8.301	32.410	-10.498	-65.56	40.28	29.03	35.182	29.008	19.110	0.71692	-0.55191	0.25171	0.34341	22.6	13111	100
2025-5-25 10:37:20.182	WT901BLE68(801231B9234C)	-0.543	-0.870	0.209	8.789	38.269	-9.827	-66.06	40.29	28.19	35.182	29.008	19.110	0.71692	-0.55191	0.25171	0.34341	22.6	13111	100
2025-5-25 10:37:20.216	WT901BLE68(801231B9234C)	-0.501	-0.873	0.168	9.705	49.133	-3.723	-66.76	40.46	27.09	35.182	29.008	19.110	0.71692	-0.55191	0.25171	0.34341	22.6	13111	100
2025-5-25 10:37:20.216	WT901BLE68(801231B9234C)	-0.666	-0.976	0.210	20.691	70.923	-3.113	-67.53	40.79	25.65	35.182	29.008	19.110	0.71692	-0.55191	0.25171	0.34341	22.6	13111	100
2025-5-25 10:37:20.271	WT901BLE68(801231B9234C)	-0.643	-1.071	0.286	16.235	82.092	-7.813	-68.55	41.14	23.70	35.182	29.008	19.110	0.72055	-0.57452	0.17807	0.34485	22.6	13111	100
2025-5-25 10:37:20.272	WT901BLE68(801231B9234C)	-0.608	-1.160	0.164	12.634	85.754	-5.127	-69.75	41.51	21.69	35.182	29.008	19.110	0.72055	-0.57452	0.17807	0.34485	22.6	13111	100
2025-5-25 10:37:20.300	WT901BLE68(801231B9234C)	-0.725	-1.231	0.003	-11.475	84.900	-16.174	-71.32	41.78	19.52	35.182	29.008	19.110	0.72055	-0.57452	0.17807	0.34485	22.6	13111	100
2025-5-25 10:37:20.300	WT901BLE68(801231B9234C)	-0.586	-1.132	-0.104	1.831	98.877	-10.315	-73.08	42.09	17.07	35.182	29.008	19.110	0.72055	-0.57452	0.17807	0.34485	22.6	13111	100
2025-5-25 10:37:20.361	WT901BLE68(801231B9234C)	-0.569	-1.013	-0.195	6.226	107.422	-6.653	-74.92	42.38	14.49	35.182	29.008	19.110	0.72055	-0.57452	0.17807	0.34485	22.6	13111	100
2025-5-25 10:37:20.361	WT901BLE68(801231B9234C)	-0.517	-0.955	-0.204	15.198	113.708	-1.465	-76.79	42.71	11.71	35.182	29.008	19.110	0.72055	-0.57452	0.17807	0.34485	22.6	13111	100
2025-5-25 10:37:20.390	WT901BLE68(801231B9234C)	-0.442	-0.926	-0.147	10.803	109.314	4.028	-78.69	43.08	8.89	35.182	29.008	19.110	0.72055	-0.57452	0.17807	0.34485	22.6	13111	100
2025-5-25 10:37:20.390	WT901BLE68(801231B9234C)	-0.311	-0.811	-0.181	20.691	99.365	23.865	-80.28	43.65	6.38	35.182	29.008	19.110	0.72055	-0.57452	0.17807	0.34485	22.6	13111	100
2025-5-25 10:37:20.423	WT901BLE68(801231B9234C)	-0.304	-0.682	-0.162	20.813	99.243	45.959	-81.71	44.53	4.05	35.182	29.008	19.110	0.72055	-0.57452	0.17807	0.34485	22.6	13111	100
2025-5-25 10:37:20.423	WT901BLE68(801231B9234C)	-0.532	-0.563	-0.247	9.521	109.985	60.913	-83.43	45.74	1.54	35.182	29.008	19.110	0.72055	-0.57452	0.17807	0.34485	22.6	13111	100
2025-5-25 10:37:20.482	WT901BLE68(801231B9234C)	-0.657	-0.608	-0.492	-2.075	88.257	79.590	-85.60	47.14	-1.03	28.028	31.066	29.988	0.72055	-0.57452	0.17807	0.34485	22.6	13111	100
2025-5-25 10:37:20.482	WT901BLE68(801231B9234C)	-0.383	-0.642	-0.462	-1.465	4.822	110.168	-86.42	48.94	-1.71	28.028	31.066	29.988	0.72055	-0.57452	0.17807	0.34485	22.6	13111	100
2025-5-25 10:37:20.511	WT901BLE68(801231B9234C)	-0.589	-0.445	0.092	11.780	-1.221	107.056	-86.12	51.00	-1.20	28.028	31.066	29.988	0.72055	-0.57452	0.17807	0.34485	22.6	13111	100
2025-5-25 10:37:20.511	WT901BLE68(801231B9234C)	-0.683	-0.156	0.303	-34.180	24.231	77.515	-86.89	52.53	-1.41	28.028	31.066	29.988	0.72055	-0.57452	0.17807	0.34485	22.6	13111	100
2025-5-25 10:37:20.541	WT901BLE68(801231B9234C)	-0.613	-0.012	0.353	-82.214	18.799	75.989	-88.79	53.94	-2.05	28.028	31.066	29.988	0.72055	-0.57452	0.17807	0.34485	22.6	13111	100
2025-5-25 10:37:20.541	WT901BLE68(801231B9234C)	-0.371	-0.051	0.320	-127.930	-19.104	84.412	-90.93	55.48	-1.93	28.028	31.066	29.988	0.72055	-0.57452	0.17807	0.34485	22.6	13111	100
2025-5-25 10:37:20.601	WT901BLE68(801231B9234C)	-0.242	-0.135	0.173	-156.006	-59.387	115.173	-92.46	57.51	-0.36	28.028	31.066	29.988	0.72055	-0.57452	0.17807	0.34485	22.6	13111	100
2025-5-25 10:37:20.601	WT901BLE68(801231B9234C)	-0.216	-0.188	0.015	-164.856	-91.980	158.936	-93.07	60.42	2.58	28.028	31.066	29.988	0.72055	-0.57452	0.17807	0.34485	22.6	13111	100
2025-5-25 10:37:20.631	WT901BLE68(801231B9234C)	-0.316	-0.221	-0.043	-152.405	-127.808	192.383	-92.07	63.98	7.16	28.028	31.066	29.988	0.72055	-0.57452	0.17807	0.34485	22.6	13111	100
2025-5-25 10:37:20.632	WT901BLE68(801231B9234C)	-0.432	-0.172	-0.060	-137.878	-166.077	234.863	-88.15	68.20	14.52	28.028	31.066	29.988	0.72055	-0.57452	0.17807	0.34485	22.6	13111	100
2025-5-25 10:37:20.662	WT901BLE68(801231B9234C)	-0.465	-0.080	-0.065	-129.578	-210.999	272.461	-78.60	72.71	27.43	28.028	31.066	29.988	0.72055	-0.57452	0.17807	0.34485	22.6	13111	100
2025-5-25 10:37:20.663	WT901BLE68(801231B9234C)	-0.457	-0.050	-0.204	-111.206	-260.010	308.716	-58.00	76.26	51.31	28.028	31.066	29.988	0.48965	-0.56662	0.31995	0.58023	22.6	13111	100
2025-5-25 10:37:20.721	WT901BLE68(801231B9234C)	-0.268	0.030	-0.250	-79.773	-253.662	333.191	-27.17	76.70	85.02	28.028	31.066	29.988	0.48965	-0.56662	0.31995	0.58023	22.6	13111	100
2025-5-25 10:37:20.721	WT901BLE68(801231B9234C)	-0.286	0.125	-0.285	-43.213	-188.843	347.107	-0.72	74.27	113.73	28.028	31.066	29.988	0.48965	-0.56662	0.31995	0.58023	22.6	13111	100
2025-5-25 10:37:20.752	WT901BLE68(801231B9234C)	-0.860	0.400	-0.169	-9.949	-112.061	366.272	18.33	70.64	134.57	28.028	31.066	29.988	0.48965	-0.56662	0.31995	0.58023	22.6	13111	100
2025-5-25 10:37:20.752	WT901BLE68(801231B9234C)	-1.465	0.916	-0.212	0.122	-38.940	357.483	33.55	66.70	151.01	28.028	31.066	29.988	0.48965	-0.56662	0.31995	0.58023	22.6	13111	100
2025-5-25 10:37:20.781	WT901BLE68(801231B9234C)	-1.546	1.347	-0.077	-35.034	-46.387	372.864	45.15	61.55	163.34	28.028	31.066	29.988	0.48965	-0.56662	0.31995	0.58023	22.6	13111	100
2025-5-25 10:37:20.781	WT901BLE68(801231B9234C)	-0.968	1.215	-0.014	-59.570	-188.965	354.431	49.11	54.45	168.55	28.028	31.066	29.988	0.48965	-0.56662	0.31995	0.58023	22.6	13111	100
2025-5-25 10:37:20.842	WT901BLE68(801231B9234C)	-0.677	1.266	-0.067	-54.871	-227.905	374.329	49.93	46.05	170.54	28.028	31.066	29.988	0.48965	-0.56662	0.31995	0.58023	22.6	13111	100
2025-5-25 10:37:20.842	WT901BLE68(801231B9234C)	-0.291	1.676	0.018	-50.903	-187.988	388.550	50.81	37.67	172.77	28.028	31.066	29.988	0.48965	-0.56662	0.31995	0.58023	22.6	13111	100
2025-5-25 10:37:20.874	WT901BLE68(801231B9234C)	-0.005	1.820	0.049	-21.545	-106.567	414.429	52.48	29.62	175.96	29.596	-35.770	8.918	0.48965	-0.56662	0.31995	0.58023	22.6	13111	100
2025-5-25 10:37:20.874	WT901BLE68(801231B9234C)	-0.050	1.951	0.063	22.888	2.197	409.790	55.01	22.45	-179.70	29.596	-35.770	8.918	0.48965	-0.56662	0.31995	0.58023	22.6	13111	100
2025-5-25 10:37:20.904	WT901BLE68(801231B9234C)	-0.169	2.055	0.207	62.256	150.452	403.687	58.40	16.57	-173.86	29.596	-35.770	8.918	0.48965	-0.56662	0.31995	0.58023	22.6	13111	100
2025-5-25 10:37:20.904	WT901BLE68(801231B9234C)	-0.337	2.149	0.264	75.745	257.935	374.207	62.06	11.93	-166.34	29.596	-35.770	8.918	0.48965	-0.56662	0.31995	0.58023	22.6	13111	100
2025-5-25 10:37:20.962	WT901BLE68(801231B9234C)	-0.409	2.168	0.307	75.073	310.059	335.022	65.20	8.26	-158.10	29.596	-35.770	8.918	0.48965	-0.56662	0.31995	0.58023	22.6	13111	100
2025-5-25 10:37:20.962	WT901BLE68(801231B9234C)	-0.431	2.107	0.280	53.223	307.190	291.260	67.54	5.16	-149.82	29.596	-35.770	8.918	0.48965	-0.56662	0.31995	0.58023	22.6	13111	100
2025-5-25 10:37:20.992	WT901BLE68(801231B9234C)	-0.496	1.927	0.142	31.799	257.263	253.601	68.92	2.33	-142.55	29.596	-35.770	8.918	0.48965	-0.56662	0.31995	0.58023	22.6	13111	100
2025-5-25 10:37:20.992	WT901BLE68(801231B9234C)	-0.591	1.708	0.008	15.991	184.387	222.717	69.54	-0.38	-136.74	29.596	-35.770	8.918	0.48965	-0.56662	0.31995	0.58023	22.6	13111	100
2025-5-25 10:37:21.23	WT901BLE68(801231B9234C)	-0.634	1.494	-0.044	6.470	102.661	197.937	69.74	-3.13	-132.56	29.596	-35.770	8.918	0.48965	-0.56662	0.31995	0.58023	22.6	13111	100
2025-5-25 10:37:21.24	WT901BLE68(801231B9234C)	-0.604	1.280	-0.009	4.578	21.851	172.974	69.80	-5.95	-130.07	29.596	-35.770	8.918	0.48965	-0.56662	0.31995	0.58023	22.6	13111	100
2025-5-25 10:37:21.81	WT901BLE68(801231B9234C)	-0.479	1.076	0.041	4.456	-43.457	142.883	69.88	-8.67	-129.17	29.596	-35.770	8.918	-0.39691	-0.17947	0.55112	0.71161	22.6	13111	100
2025-5-25 10:37:21.81	WT901BLE68(801231B9234C)	-0.365	0.946	0.058	6.104	-75.073	122.009	70.14	-11.13	-129.24	29.596	-35.770	8.918	-0.39691	-0.17947	0.55112	0.71161	22.6	13111	100
2025-5-25 10:37:21.110	WT901BLE68(801231B9234C)	-0.310	0.867	0.090	6.104	-75.256	110.046	70.51	-13.40	-129.65	29.596	-35.770	8.918	-0.39691	-0.17947	0.55112	0.71161	22.6	13111	100
2025-5-25 10:37:21.110	WT901BLE68(801231B9234C)	-0.284	0.783	0.115	6.775	-51.392	96.558	70.86	-15.27	-129.84	29.596	-35.770	8.918	-0.39691	-0.17947	0.55112	0.71161	22.6	13111	100
2025-5-25 10:37:21.155	WT901BLE68(801231B9234C)	-0.302	0.726	0.162	7.629	-16.357	79.468	71.07	-16.61	-129.53	29.596	-35.770	8.918	-0.39691	-0.17947	0.55112	0.71161	22.6	13111	100
2025-5-25 10:37:21.155	WT901BLE68(801231B9234C)	-0.363	0.692	0.229	6.042	15.320	64.697	71.09	-17.46	-128.69	29.596	-35.770	8.918	-0.39691	-0.17947	0.55112	0.71161	22.6	13111	100
2025-5-25 10:37:21.233	WT901BLE68(801231B9234C)	-0.438	0.698	0.294	2.136	36.011	49.438	70.91	-17.84	-127.46	29.596	-35.770	8.918	-0.39691	-0.17947	0.55112	0.71161	22.6	13111	100
2025-5-25 10:37:21.233	WT901BLE68(801231B9234C)	-0.488	0.649	0.351	-5.615	42.419	34.180	70.52	-17.85	-126.11	29.596	-35.770	8.918	-0.39691	-0.17947	0.55112	0.71161	22.6	13111	100
2025-5-25 10:37:21.235	WT901BLE68(801231B9234C)	-0.500	0.657	0.402	-13.123	33.752	18.921	70.02	-17.55	-124.96	29.596	-35.770	8.918	-0.39691	-0.17947	0.55112	0.71161	22.6	13111	100
2025-5-25 10:37:21.235	WT901BLE68(801231B9234C)	-0.478	0.662	0.416	-21.851	15.503	6.653	69.45	-17.12	-124.22	29.596	-35.770	8.918	-0.39691	-0.17947	0.55112	0.71161	22.6	13111	100
2025-5-25 10:37:21.290	WT901BLE68(801231B9234C)	-0.463	0.726	0.406	-25.146	-3.479	-17.273	68.91	-16.44	-124.00	29.596	-35.770	8.918	-0.39691	-0.17947	0.55112	0.71161	22.6	13111	100
2025-5-25 10:37:21.290	WT901BLE68(801231B9234C)	-0.444	0.836	0.371	-28.320	-16.724	-37.598	68.43	-15.44	-124.26	-35.280	-28.616	3.528	-0.39691	-0.17947	0.55112	0.71161	22.6	13111	100
2025-5-25 10:37:21.320	WT901BLE68(801231B9234C)	-0.397	0.922	0.331	-29.907	-24.414	-56.030	67.99	-14.20	-124.84	-35.280	-28.616	3.528	-0.39691	-0.17947	0.55112	0.71161	22.6	13111	100
2025-5-25 10:37:21.320	WT901BLE68(801231B9234C)	-0.339	1.020	0.322	-31.372	-24.536	-80.627	67.57	-12.60	-125.63	-35.280	-28.616	3.528	-0.39691	-0.17947	0.55112	0.71161	22.6	13111	100
2025-5-25 10:37:21.350	WT901BLE68(801231B9234C)	-0.356	1.123	0.326	-29.785	-21.790	-80.750	67.11	-10.65	-126.52	-35.280	-28.616	3.528	-0.39691	-0.17947	0.55112	0.71161	22.6	13111	100
2025-5-25 10:37:21.350	WT901BLE68(801231B9234C)	-0.305	1.435	0.275	-34.058	-20.569	-119.324	66.56	-8.34	-127.60	-35.280	-28.616	3.528	-0.39691	-0.17947	0.55112	0.71161	22.6	13111	100
2025-5-25 10:37:21.381	WT901BLE68(801231B9234C)	-0.337	1.684	0.201	-33.691	-8.362	-134.644	66.06	-5.73	-128.63	-35.280	-28.616	3.528	-0.39691	-0.17947	0.55112	0.71161	22.6	13111	100
2025-5-25 10:37:21.382	WT901BLE68(801231B9234C)	-0.417	1.703	0.167	-30.945	2.686	-148.560	65.56	-2.82	-129.51	-35.280	-28.616	3.528	-0.39691	-0.17947	0.55112	0.71161	22.6	13111	100
2025-5-25 10:37:21.440	WT901BLE68(801231B9234C)	-0.391	1.682	0.135	-24.109	-9.216	-162.781	65.15	0.25	-130.57	-35.280	-28.616	3.528	-0.39691	-0.17947	0.55112	0.71161	22.6	13111	100
2025-5-25 10:37:21.441	WT901BLE68(801231B9234C)	-0.373	1.678	0.126	-19.531	-30.212	-179.688	64.80	3.42	-132.07	-35.280	-28.616	3.528	-0.39691	-0.17947	0.55112	0.71161	22.6	13111	100
2025-5-25 10:37:21.471	WT901BLE68(801231B9234C)	-0.359	1.714	0.103	-14.893	-58.594	-200.989	64.43	6.70	-134.19	-35.280	-28.616	3.528	-0.30130	-0.25034	0.47638	0.78708	22.6	13111	100
2025-5-25 10:37:21.471	WT901BLE68(801231B9234C)	-0.331	1.726	0.031	-12.085	-102.173	-220.764	63.89	9.98	-137.20	-35.280	-28.616	3.528	-0.30130	-0.25034	0.47638	0.78708	22.6	13111	100
2025-5-25 10:37:21.531	WT901BLE68(801231B9234C)	-0.275	1.796	-0.042	-13.306	-143.127	-230.225	63.01	13.04	-141.14	-35.280	-28.616	3.528	-0.30130	-0.25034	0.47638	0.78708	22.6	13111	100
2025-5-25 10:37:21.531	WT901BLE68(801231B9234C)	-0.236	1.831	-0.084	-16.357	-166.687	-231.873	61.75	15.80	-145.73	-35.280	-28.616	3.528	-0.30130	-0.25034	0.47638	0.78708	22.6	13111	100
2025-5-25 10:37:21.560	WT901BLE68(801231B9234C)	-0.194	1.746	-0.089	-19.958	-171.021	-231.018	60.14	18.30	-150.60	-35.280	-28.616	3.528	-0.30130	-0.25034	0.47638	0.78708	22.6	13111	100
2025-5-25 10:37:21.561	WT901BLE68(801231B9234C)	-0.152	1.556	-0.072	-24.414	-164.246	-233.337	58.26	20.69	-155.49	-35.280	-28.616	3.528	-0.30130	-0.25034	0.47638	0.78708	22.6	13111	100
2025-5-25 10:37:21.590	WT901BLE68(801231B9234C)	-0.103	1.411	-0.074	-29.419	-155.457	-239.380	56.07	23.05	-160.42	-35.280	-28.616	3.528	-0.30130	-0.25034	0.47638	0.78708	22.6	13111	100
2025-5-25 10:37:21.590	WT901BLE68(801231B9234C)	-0.085	1.296	-0.077	-33.875	-141.418	-244.141	53.62	25.42	-165.35	-35.280	-28.616	3.528	-0.30130	-0.25034	0.47638	0.78708	22.6	13111	100
2025-5-25 10:37:21.622	WT901BLE68(801231B9234C)	-0.089	1.197	-0.058	-38.086	-123.108	-245.667	50.95	27.80	-170.19	-35.280	-28.616	3.528	-0.30130	-0.25034	0.47638	0.78708	22.6	13111	100
2025-5-25 10:37:21.622	WT901BLE68(801231B9234C)	-0.086	1.116	-0.046	-41.016	-104.919	-242.981	48.11	30.12	-174.95	-35.280	-28.616	3.528	-0.30130	-0.25034	0.47638	0.78708	22.6	13111	100
2025-5-25 10:37:21.682	WT901BLE68(801231B9234C)	-0.089	1.063	-0.027	-42.969	-86.914	-235.901	45.12	32.18	-179.97	8.624	-46.158	1.862	-0.30130	-0.25034	0.47638	0.78708	22.6	13111	100
2025-5-25 10:37:21.682	WT901BLE68(801231B9234C)	-0.105	1.005	0.005	-44.312	-70.923	-227.417	41.79	33.77	174.20	8.624	-46.158	1.862	-0.30130	-0.25034	0.47638	0.78708	22.6	13111	100
2025-5-25 10:37:21.711	WT901BLE68(801231B9234C)	-0.089	1.004	0.066	-50.781	-61.829	-216.980	38.34	35.10	168.40	8.624	-46.158	1.862	-0.30130	-0.25034	0.47638	0.78708	22.6	13111	100
2025-5-25 10:37:21.711	WT901BLE68(801231B9234C)	-0.079	0.925	0.063	-50.842	-53.833	-203.979	34.84	36.10	162.76	8.624	-46.158	1.862	-0.30130	-0.25034	0.47638	0.78708	22.6	13111	100
2025-5-25 10:37:21.770	WT901BLE68(801231B9234C)	-0.022	0.844	0.098	-54.321	-46.631	-193.970	31.37	36.88	157.37	8.624	-46.158	1.862	-0.30130	-0.25034	0.47638	0.78708	22.6	13111	100
2025-5-25 10:37:21.770	WT901BLE68(801231B9234C)	0.111	0.807	0.122	-57.129	-45.654	-182.251	27.94	37.37	152.20	8.624	-46.158	1.862	-0.30130	-0.25034	0.47638	0.78708	22.6	13111	100
2025-5-25 10:37:21.801	WT901BLE68(801231B9234C)	0.300	0.804	0.068	-52.490	-44.678	-156.128	24.77	37.44	147.43	8.624	-46.158	1.862	-0.30130	-0.25034	0.47638	0.78708	22.6	13111	100
2025-5-25 10:37:21.802	WT901BLE68(801231B9234C)	0.409	0.742	0.034	-41.321	-21.912	-116.577	22.38	37.29	143.64	8.624	-46.158	1.862	-0.30130	-0.25034	0.47638	0.78708	22.6	13111	100
2025-5-25 10:37:21.892	WT901BLE68(801231B9234C)	0.330	0.680	0.067	-22.156	9.949	-72.144	21.07	37.24	141.15	8.624	-46.158	1.862	-0.30130	-0.25034	0.47638	0.78708	22.6	13111	100
2025-5-25 10:37:21.892	WT901BLE68(801231B9234C)	0.170	0.724	0.151	-1.343	33.997	-24.536	20.90	37.32	139.96	8.624	-46.158	1.862	-0.30130	-0.25034	0.47638	0.78708	22.6	13111	100
2025-5-25 10:37:21.903	WT901BLE68(801231B9234C)	0.101	0.799	0.254	11.902	44.067	25.208	21.91	37.34	140.19	8.624	-46.158	1.862	0.37073	-0.22348	0.28641	0.85468	22.6	13111	100
2025-5-25 10:37:21.903	WT901BLE68(801231B9234C)	0.108	0.910	0.283	24.780	26.123	72.571	23.74	36.83	141.41	8.624	-46.158	1.862	0.37073	-0.22348	0.28641	0.85468	22.6	13111	100
2025-5-25 10:37:21.922	WT901BLE68(801231B9234C)	0.038	1.070	0.187	44.678	12.573	124.817	26.36	35.52	143.50	8.624	-46.158	1.862	0.37073	-0.22348	0.28641	0.85468	22.6	13111	100
2025-5-25 10:37:21.922	WT901BLE68(801231B9234C)	-0.053	1.169	0.137	71.533	22.522	174.011	29.93	33.68	146.56	8.624	-46.158	1.862	0.37073	-0.22348	0.28641	0.85468	22.6	13111	100
2025-5-25 10:37:21.951	WT901BLE68(801231B9234C)	-0.074	1.273	0.164	103.027	35.217	225.159	34.46	31.35	150.52	8.624	-46.158	1.862	0.37073	-0.22348	0.28641	0.85468	22.6	13111	100
2025-5-25 10:37:21.951	WT901BLE68(801231B9234C)	-0.128	1.421	0.240	126.099	37.109	266.052	39.62	28.30	155.04	8.624	-46.158	1.862	0.37073	-0.22348	0.28641	0.85468	22.6	13111	100
2025-5-25 10:37:22.11	WT901BLE68(801231B9234C)	-0.190	1.570	0.332	134.888	27.161	286.133	44.71	24.48	159.44	8.624	-46.158	1.862	0.37073	-0.22348	0.28641	0.85468	22.6	13111	100
2025-5-25 10:37:22.11	WT901BLE68(801231B9234C)	-0.182	1.728	0.376	132.080	9.094	291.809	49.26	20.01	163.27	8.624	-46.158	1.862	0.37073	-0.22348	0.28641	0.85468	22.6	13111	100
2025-5-25 10:37:22.42	WT901BLE68(801231B9234C)	-0.116	1.903	0.317	126.099	-13.062	289.917	53.11	15.06	166.33	8.624	-46.158	1.862	0.37073	-0.22348	0.28641	0.85468	22.6	13111	100
2025-5-25 10:37:22.43	WT901BLE68(801231B9234C)	-0.042	1.970	0.209	122.314	0.549	276.733	56.54	10.12	168.93	8.624	-46.158	1.862	0.37073	-0.22348	0.28641	0.85468	22.6	13111	100
2025-5-25 10:37:22.71	WT901BLE68(801231B9234C)	-0.063	1.812	0.089	116.394	27.283	276.367	59.50	5.39	171.52	8.624	-46.158	1.862	0.37073	-0.22348	0.28641	0.85468	22.6	13111	100
2025-5-25 10:37:22.72	WT901BLE68(801231B9234C)	-0.154	1.621	0.070	104.248	79.407	269.592	62.08	1.09	174.74	10.290	-45.472	6.272	0.37073	-0.22348	0.28641	0.85468	22.6	13111	100
2025-5-25 10:37:22.131	WT901BLE68(801231B9234C)	-0.207	1.372	0.132	92.102	113.220	250.183	64.15	-2.64	178.55	10.290	-45.472	6.272	0.37073	-0.22348	0.28641	0.85468	22.6	13111	100
2025-5-25 10:37:22.131	WT901BLE68(801231B9234C)	-0.285	1.223	0.228	84.106	125.793	222.656	65.79	-5.77	-177.37	10.290	-45.472	6.272	0.37073	-0.22348	0.28641	0.85468	22.6	13111	100
2025-5-25 10:37:22.161	WT901BLE68(801231B9234C)	-0.284	1.130	0.265	77.881	121.033	186.279	67.06	-8.33	-173.46	10.290	-45.472	6.272	0.37073	-0.22348	0.28641	0.85468	22.6	13111	100
2025-5-25 10:37:22.162	WT901BLE68(801231B9234C)	-0.205	1.101	0.220	67.932	121.094	155.273	68.03	-10.31	-169.76	10.290	-45.472	6.272	0.37073	-0.22348	0.28641	0.85468	22.6	13111	100
2025-5-25 10:37:22.191	WT901BLE68(801231B9234C)	-0.177	1.115	0.132	55.542	137.329	134.521	68.63	-11.77	-166.01	10.290	-45.472	6.272	0.37073	-0.22348	0.28641	0.85468	22.6	13111	100
2025-5-25 10:37:22.191	WT901BLE68(801231B9234C)	-0.202	1.172	0.040	42.419	166.199	126.587	68.80	-12.82	-161.85	10.290	-45.472	6.272	0.37073	-0.22348	0.28641	0.85468	22.6	13111	100
2025-5-25 10:37:22.251	WT901BLE68(801231B9234C)	-0.291	1.234	0.032	33.203	200.012	129.089	68.54	-13.58	-157.02	10.290	-45.472	6.272	0.37073	-0.22348	0.28641	0.85468	22.6	13111	100
2025-5-25 10:37:22.251	WT901BLE68(801231B9234C)	-0.403	1.286	0.084	24.780	218.933	134.949	67.96	-14.21	-151.63	10.290	-45.472	6.272	0.37073	-0.22348	0.28641	0.85468	22.6	13111	100
2025-5-25 10:37:22.283	WT901BLE68(801231B9234C)	-0.490	1.171	0.170	12.939	213.318	141.113	67.06	-14.84	-146.13	10.290	-45.472	6.272	-0.32104	-0.05878	0.55759	0.76318	22.6	13111	100
2025-5-25 10:37:22.283	WT901BLE68(801231B9234C)	-0.580	0.986	0.248	5.798	202.820	145.447	65.96	-15.52	-140.74	10.290	-45.472	6.272	-0.32104	-0.05878	0.55759	0.76318	22.6	13111	100
2025-5-25 10:37:22.311	WT901BLE68(801231B9234C)	-0.652	0.932	0.304	4.456	177.429	149.048	64.80	-16.29	-135.68	10.290	-45.472	6.272	-0.32104	-0.05878	0.55759	0.76318	22.6	13111	100
2025-5-25 10:37:22.312	WT901BLE68(801231B9234C)	-0.683	0.996	0.345	4.089	138.306	153.015	63.72	-17.29	-131.20	10.290	-45.472	6.272	-0.32104	-0.05878	0.55759	0.76318	22.6	13111	100
2025-5-25 10:37:22.371	WT901BLE68(801231B9234C)	-0.785	0.986	0.342	5.310	106.873	147.583	62.78	-18.49	-127.40	10.290	-45.472	6.272	-0.32104	-0.05878	0.55759	0.76318	22.6	13111	100
2025-5-25 10:37:22.372	WT901BLE68(801231B9234C)	-0.861	1.001	0.325	5.920	94.177	124.878	61.94	-19.48	-124.07	10.290	-45.472	6.272	-0.32104	-0.05878	0.55759	0.76318	22.6	13111	100
2025-5-25 10:37:22.401	WT901BLE68(801231B9234C)	-0.792	1.021	0.294	5.432	81.665	91.187	61.19	-19.94	-121.22	10.290	-45.472	6.272	-0.32104	-0.05878	0.55759	0.76318	22.6	13111	100
2025-5-25 10:37:22.402	WT901BLE68(801231B9234C)	-0.556	1.120	0.256	8.484	44.617	42.480	60.80	-19.86	-119.29	10.290	-45.472	6.272	-0.32104	-0.05878	0.55759	0.76318	22.6	13111	100
2025-5-25 10:37:22.432	WT901BLE68(801231B9234C)	-0.438	1.198	0.222	13.000	-0.122	-12.207	61.01	-19.32	-118.68	10.290	-45.472	6.272	-0.32104	-0.05878	0.55759	0.76318	22.6	13111	100
2025-5-25 10:37:22.433	WT901BLE68(801231B9234C)	-0.454	1.229	0.202	18.433	-33.752	-78.796	61.73	-18.01	-119.45	10.290	-45.472	6.272	-0.32104	-0.05878	0.55759	0.76318	22.6	13111	100
2025-5-25 10:37:22.491	WT901BLE68(801231B9234C)	-0.448	1.250	0.170	19.958	-44.189	-127.869	62.74	-15.88	-121.07	-36.456	-25.774	-0.588	-0.32104	-0.05878	0.55759	0.76318	22.6	13111	100
2025-5-25 10:37:22.491	WT901BLE68(801231B9234C)	-0.430	1.280	0.173	18.799	-47.119	-161.560	63.78	-13.10	-123.04	-36.456	-25.774	-0.588	-0.32104	-0.05878	0.55759	0.76318	22.6	13111	100
2025-5-25 10:37:22.521	WT901BLE68(801231B9234C)	-0.460	1.326	0.153	17.578	-50.781	-186.096	64.73	-9.87	-125.20	-36.456	-25.774	-0.588	-0.32104	-0.05878	0.55759	0.76318	22.6	13111	100
2025-5-25 10:37:22.522	WT901BLE68(801231B9234C)	-0.433	1.415	0.133	16.052	-61.218	-203.247	65.55	-6.33	-127.58	-36.456	-25.774	-0.588	-0.32104	-0.05878	0.55759	0.76318	22.6	13111	100
2025-5-25 10:37:22.551	WT901BLE68(801231B9234C)	-0.432	1.464	0.147	12.939	-81.909	-215.271	66.18	-2.70	-130.27	-36.456	-25.774	-0.588	-0.32104	-0.05878	0.55759	0.76318	22.6	13111	100
2025-5-25 10:37:22.551	WT901BLE68(801231B9234C)	-0.344	1.606	0.112	10.986	-119.080	-225.098	66.60	0.86	-133.58	-36.456	-25.774	-0.588	-0.32104	-0.05878	0.55759	0.76318	22.6	13111	100
2025-5-25 10:37:22.611	WT901BLE68(801231B9234C)	-0.229	1.678	0.061	6.042	-149.658	-228.577	66.74	4.21	-137.51	-36.456	-25.774	-0.588	-0.32104	-0.05878	0.55759	0.76318	22.6	13111	100
2025-5-25 10:37:22.611	WT901BLE68(801231B9234C)	-0.181	1.659	0.063	-4.028	-163.635	-238.281	66.44	7.48	-141.86	-36.456	-25.774	-0.588	-0.32104	-0.05878	0.55759	0.76318	22.6	13111	100
2025-5-25 10:37:22.642	WT901BLE68(801231B9234C)	-0.136	1.615	0.062	-13.977	-171.143	-250.671	65.65	10.81	-146.50	-36.456	-25.774	-0.588	-0.32104	-0.05878	0.55759	0.76318	22.6	13111	100
2025-5-25 10:37:22.643	WT901BLE68(801231B9234C)	-0.104	1.530	0.036	-23.621	-171.509	-263.428	64.35	14.19	-151.39	-36.456	-25.774	-0.588	-0.32104	-0.05878	0.55759	0.76318	22.6	13111	100
2025-5-25 10:37:22.671	WT901BLE68(801231B9234C)	-0.085	1.472	0.000	-31.555	-162.720	-272.827	62.57	17.63	-156.43	-36.456	-25.774	-0.588	-0.32104	-0.05878	0.55759	0.76318	22.6	13111	100
2025-5-25 10:37:22.672	WT901BLE68(801231B9234C)	-0.071	1.437	-0.015	-37.170	-149.597	-275.330	60.38	21.06	-161.48	-36.456	-25.774	-0.588	-0.04742	-0.23160	0.46765	0.85165	22.6	13111	100
2025-5-25 10:37:22.731	WT901BLE68(801231B9234C)	-0.054	1.401	-0.010	-42.542	-135.803	-273.804	57.84	24.35	-166.55	-36.456	-25.774	-0.588	-0.04742	-0.23160	0.46765	0.85165	22.6	13111	100
2025-5-25 10:37:22.731	WT901BLE68(801231B9234C)	-0.061	1.350	0.021	-47.119	-124.084	-268.433	54.97	27.41	-171.67	-36.456	-25.774	-0.588	-0.04742	-0.23160	0.46765	0.85165	22.6	13111	100
2025-5-25 10:37:22.761	WT901BLE68(801231B9234C)	-0.063	1.274	0.022	-52.307	-113.525	-260.315	51.76	30.13	-176.95	-36.456	-25.774	-0.588	-0.04742	-0.23160	0.46765	0.85165	22.6	13111	100
2025-5-25 10:37:22.762	WT901BLE68(801231B9234C)	-0.055	1.202	0.026	-55.420	-98.328	-244.812	48.32	32.42	177.59	-36.456	-25.774	-0.588	-0.04742	-0.23160	0.46765	0.85165	22.6	13111	100
2025-5-25 10:37:22.791	WT901BLE68(801231B9234C)	-0.037	1.103	0.043	-59.692	-87.402	-231.262	44.65	34.23	171.96	-36.456	-25.774	-0.588	-0.04742	-0.23160	0.46765	0.85165	22.6	13111	100
2025-5-25 10:37:22.791	WT901BLE68(801231B9234C)	-0.064	1.040	0.076	-59.326	-67.383	-213.745	41.01	35.68	166.48	-36.456	-25.774	-0.588	-0.04742	-0.23160	0.46765	0.85165	22.6	13111	100
2025-5-25 10:37:22.852	WT901BLE68(801231B9234C)	-0.047	0.981	0.094	-57.983	-56.213	-198.730	37.43	36.85	161.19	-36.456	-25.774	-0.588	-0.04742	-0.23160	0.46765	0.85165	22.6	13111	100
2025-5-25 10:37:22.852	WT901BLE68(801231B9234C)	-0.034	0.929	0.107	-55.054	-52.429	-178.894	34.01	37.64	156.19	-36.456	-25.774	-0.588	-0.04742	-0.23160	0.46765	0.85165	22.6	13111	100
2025-5-25 10:37:22.888	WT901BLE68(801231B9234C)	-0.006	0.917	0.113	-50.049	-52.551	-155.640	30.89	37.98	151.55	-36.456	-25.774	-0.588	-0.04742	-0.23160	0.46765	0.85165	22.6	13111	100
2025-5-25 10:37:22.889	WT901BLE68(801231B9234C)	0.031	0.922	0.110	-42.725	-51.514	-126.953	28.25	37.88	147.47	28.616	-38.612	-0.686	-0.04742	-0.23160	0.46765	0.85165	22.6	13111	100
2025-5-25 10:37:22.911	WT901BLE68(801231B9234C)	0.023	0.891	0.113	-34.729	-44.128	-94.849	26.24	37.45	144.15	28.616	-38.612	-0.686	-0.04742	-0.23160	0.46765	0.85165	22.6	13111	100
2025-5-25 10:37:22.911	WT901BLE68(801231B9234C)	0.047	0.841	0.121	-26.978	-32.593	-65.308	24.96	36.86	141.70	28.616	-38.612	-0.686	-0.04742	-0.23160	0.46765	0.85165	22.6	13111	100
2025-5-25 10:37:22.972	WT901BLE68(801231B9234C)	0.020	0.831	0.144	-11.841	-21.545	-25.635	24.45	36.15	140.14	28.616	-38.612	-0.686	-0.04742	-0.23160	0.46765	0.85165	22.6	13111	100
2025-5-25 10:37:22.973	WT901BLE68(801231B9234C)	0.009	0.934	0.131	7.446	-7.751	21.545	24.94	35.28	139.70	28.616	-38.612	-0.686	-0.04742	-0.23160	0.46765	0.85165	22.6	13111	100
2025-5-25 10:37:23.2	WT901BLE68(801231B9234C)	-0.023	0.980	0.118	29.053	10.803	77.759	26.55	34.26	140.55	28.616	-38.612	-0.686	-0.04742	-0.23160	0.46765	0.85165	22.6	13111	100
2025-5-25 10:37:23.2	WT901BLE68(801231B9234C)	-0.094	1.006	0.083	53.162	31.738	132.751	29.34	33.02	142.75	28.616	-38.612	-0.686	-0.04742	-0.23160	0.46765	0.85165	22.6	13111	100
2025-5-25 10:37:23.44	WT901BLE68(801231B9234C)	-0.230	1.063	0.076	81.909	65.552	191.895	33.35	31.54	146.33	28.616	-38.612	-0.686	-0.04742	-0.23160	0.46765	0.85165	22.6	13111	100
2025-5-25 10:37:23.44	WT901BLE68(801231B9234C)	-0.382	1.178	0.200	96.680	94.727	230.347	38.16	29.79	150.96	28.616	-38.612	-0.686	-0.04742	-0.23160	0.46765	0.85165	22.6	13111	100
2025-5-25 10:37:23.93	WT901BLE68(801231B9234C)	-0.656	1.323	0.343	95.947	118.103	242.188	43.15	27.84	156.13	28.616	-38.612	-0.686	0.25333	-0.13434	0.41281	0.86444	22.6	13111	100
2025-5-25 10:37:23.93	WT901BLE68(801231B9234C)	-0.602	1.405	0.368	88.989	90.027	240.356	47.63	25.48	160.89	28.616	-38.612	-0.686	0.25333	-0.13434	0.41281	0.86444	22.6	13111	100
2025-5-25 10:37:23.137	WT901BLE68(801231B9234C)	-0.298	1.401	0.262	86.365	19.714	251.892	51.33	21.99	164.58	28.616	-38.612	-0.686	0.25333	-0.13434	0.41281	0.86444	22.6	13111	100
2025-5-25 10:37:23.137	WT901BLE68(801231B9234C)	-0.152	1.331	0.109	80.750	-31.189	248.169	54.18	17.61	166.94	28.616	-38.612	-0.686	0.25333	-0.13434	0.41281	0.86444	22.6	13111	100
2025-5-25 10:37:23.183	WT901BLE68(801231B9234C)	-0.172	1.326	0.026	84.717	-21.118	237.000	56.74	13.20	168.83	28.616	-38.612	-0.686	0.25333	-0.13434	0.41281	0.86444	22.6	13111	100
2025-5-25 10:37:23.183	WT901BLE68(801231B9234C)	-0.158	1.276	0.012	79.468	-2.380	235.901	59.07	9.04	170.78	28.616	-38.612	-0.686	0.25333	-0.13434	0.41281	0.86444	22.6	13111	100
2025-5-25 10:37:23.212	WT901BLE68(801231B9234C)	-0.157	1.178	0.056	81.055	34.607	242.981	61.25	5.03	173.21	28.616	-38.612	-0.686	0.25333	-0.13434	0.41281	0.86444	22.6	13111	100
2025-5-25 10:37:23.212	WT901BLE68(801231B9234C)	-0.199	1.133	0.099	78.247	81.177	240.479	63.25	1.40	176.45	28.616	-38.612	-0.686	0.25333	-0.13434	0.41281	0.86444	22.6	13111	100
2025-5-25 10:37:23.242	WT901BLE68(801231B9234C)	-0.243	1.124	0.109	69.519	129.333	236.023	64.89	-1.80	-179.46	28.616	-38.612	-0.686	0.25333	-0.13434	0.41281	0.86444	22.6	13111	100
2025-5-25 10:37:23.243	WT901BLE68(801231B9234C)	-0.285	1.113	0.108	59.143	169.067	230.713	66.02	-4.59	-174.55	28.616	-38.612	-0.686	0.25333	-0.13434	0.41281	0.86444	22.6	13111	100
2025-5-25 10:37:23.302	WT901BLE68(801231B9234C)	-0.321	1.153	0.070	49.072	191.345	223.694	66.65	-7.07	-169.11	-5.684	-44.982	11.172	0.25333	-0.13434	0.41281	0.86444	22.6	13111	100
2025-5-25 10:37:23.302	WT901BLE68(801231B9234C)	-0.343	1.225	0.003	39.734	207.764	216.492	66.83	-9.26	-163.33	-5.684	-44.982	11.172	0.25333	-0.13434	0.41281	0.86444	22.6	13111	100
2025-5-25 10:37:23.331	WT901BLE68(801231B9234C)	-0.397	1.249	-0.051	34.790	219.116	211.121	66.63	-11.21	-157.29	-5.684	-44.982	11.172	0.25333	-0.13434	0.41281	0.86444	22.6	13111	100
2025-5-25 10:37:23.332	WT901BLE68(801231B9234C)	-0.485	1.257	0.042	27.222	218.201	203.247	66.13	-12.93	-151.12	-5.684	-44.982	11.172	0.25333	-0.13434	0.41281	0.86444	22.6	13111	100
2025-5-25 10:37:23.361	WT901BLE68(801231B9234C)	-0.589	1.152	0.211	17.273	190.308	186.829	65.35	-14.47	-145.41	-5.684	-44.982	11.172	0.25333	-0.13434	0.41281	0.86444	22.6	13111	100
2025-5-25 10:37:23.361	WT901BLE68(801231B9234C)	-0.642	1.046	0.322	13.550	148.682	163.269	64.51	-15.80	-140.50	-5.684	-44.982	11.172	0.25333	-0.13434	0.41281	0.86444	22.6	13111	100
2025-5-25 10:37:23.453	WT901BLE68(801231B9234C)	-0.689	1.122	0.354	13.794	104.126	146.912	63.86	-17.07	-136.59	-5.684	-44.982	11.172	0.25333	-0.13434	0.41281	0.86444	22.6	13111	100
2025-5-25 10:37:23.453	WT901BLE68(801231B9234C)	-0.810	1.148	0.410	13.733	75.439	128.418	63.34	-18.27	-133.48	-5.684	-44.982	11.172	0.25333	-0.13434	0.41281	0.86444	22.6	13111	100
2025-5-25 10:37:23.454	WT901BLE68(801231B9234C)	-0.883	1.122	0.424	10.315	43.762	104.065	62.94	-19.30	-131.10	-5.684	-44.982	11.172	0.25333	-0.13434	0.41281	0.86444	22.6	13111	100
2025-5-25 10:37:23.454	WT901BLE68(801231B9234C)	-0.761	1.102	0.400	9.888	6.287	68.054	62.76	-20.02	-129.70	-5.684	-44.982	11.172	0.25333	-0.13434	0.41281	0.86444	22.6	13111	100
2025-5-25 10:37:23.482	WT901BLE68(801231B9234C)	-0.486	1.149	0.372	11.230	-35.217	23.254	62.98	-20.36	-129.44	-5.684	-44.982	11.172	0.25333	-0.13434	0.41281	0.86444	22.6	13111	100
2025-5-25 10:37:23.482	WT901BLE68(801231B9234C)	-0.385	1.259	0.321	9.888	-58.350	-29.846	63.62	-20.04	-130.29	-5.684	-44.982	11.172	-0.43381	-0.08264	0.53864	0.71747	22.6	13111	100
2025-5-25 10:37:23.602	WT901BLE68(801231B9234C)	-0.442	1.280	0.326	0.122	-50.720	-72.632	64.24	-18.94	-131.59	-5.684	-44.982	11.172	-0.43381	-0.08264	0.53864	0.71747	22.6	13111	100
2025-5-25 10:37:23.602	WT901BLE68(801231B9234C)	-0.436	1.332	0.320	-8.118	-27.527	-103.821	64.65	-17.06	-132.82	-5.684	-44.982	11.172	-0.43381	-0.08264	0.53864	0.71747	22.6	13111	100
2025-5-25 10:37:23.603	WT901BLE68(801231B9234C)	-0.381	1.293	0.305	-14.587	-16.602	-122.925	64.79	-14.62	-133.90	-5.684	-44.982	11.172	-0.43381	-0.08264	0.53864	0.71747	22.6	13111	100
2025-5-25 10:37:23.603	WT901BLE68(801231B9234C)	-0.387	1.217	0.289	-19.714	-10.498	-140.442	64.79	-11.87	-134.98	-5.684	-44.982	11.172	-0.43381	-0.08264	0.53864	0.71747	22.6	13111	100
2025-5-25 10:37:23.604	WT901BLE68(801231B9234C)	-0.422	1.162	0.225	-21.362	-11.597	-161.560	64.67	-8.76	-136.14	-5.684	-44.982	11.172	-0.43381	-0.08264	0.53864	0.71747	22.6	13111	100
2025-5-25 10:37:23.604	WT901BLE68(801231B9234C)	-0.438	1.211	0.152	-17.639	-36.865	-172.913	64.59	-5.54	-137.72	-5.684	-44.982	11.172	-0.43381	-0.08264	0.53864	0.71747	22.6	13111	100
2025-5-25 10:37:23.673	WT901BLE68(801231B9234C)	-0.431	1.257	0.111	-14.465	-75.684	-178.833	64.54	-2.52	-139.96	-5.684	-44.982	11.172	-0.43381	-0.08264	0.53864	0.71747	22.6	13111	100
2025-5-25 10:37:23.673	WT901BLE68(801231B9234C)	-0.377	1.370	0.063	-11.963	-126.526	-177.307	64.48	0.10	-143.04	-5.684	-44.982	11.172	-0.43381	-0.08264	0.53864	0.71747	22.6	13111	100
2025-5-25 10:37:23.692	WT901BLE68(801231B9234C)	-0.303	1.486	0.019	-16.479	-170.593	-172.974	64.26	2.21	-146.90	-5.684	-44.982	11.172	-0.43381	-0.08264	0.53864	0.71747	22.6	13111	100
2025-5-25 10:37:23.692	WT901BLE68(801231B9234C)	-0.208	1.533	-0.005	-27.222	-199.890	-172.729	63.73	3.93	-151.37	-21.070	-39.494	6.664	-0.43381	-0.08264	0.53864	0.71747	22.6	13111	100
2025-5-25 10:37:23.721	WT901BLE68(801231B9234C)	-0.136	1.534	-0.030	-39.001	-204.895	-177.612	62.84	5.50	-156.11	-21.070	-39.494	6.664	-0.43381	-0.08264	0.53864	0.71747	22.6	13111	100
2025-5-25 10:37:23.721	WT901BLE68(801231B9234C)	-0.086	1.491	-0.060	-49.683	-190.857	-186.340	61.60	7.15	-160.79	-21.070	-39.494	6.664	-0.43381	-0.08264	0.53864	0.71747	22.6	13111	100
2025-5-25 10:37:23.781	WT901BLE68(801231B9234C)	-0.067	1.396	-0.079	-57.007	-164.856	-197.754	60.11	9.06	-165.18	-21.070	-39.494	6.664	-0.43381	-0.08264	0.53864	0.71747	22.6	13111	100
2025-5-25 10:37:23.782	WT901BLE68(801231B9234C)	-0.045	1.333	-0.088	-60.120	-136.658	-206.848	58.46	11.27	-169.25	-21.070	-39.494	6.664	-0.43381	-0.08264	0.53864	0.71747	22.6	13111	100
2025-5-25 10:37:23.811	WT901BLE68(801231B9234C)	-0.068	1.250	-0.076	-61.035	-104.919	-212.463	56.70	13.74	-172.94	-21.070	-39.494	6.664	-0.43381	-0.08264	0.53864	0.71747	22.6	13111	100
2025-5-25 10:37:23.811	WT901BLE68(801231B9234C)	-0.093	1.174	-0.042	-62.317	-78.308	-217.102	54.87	16.47	-176.30	-21.070	-39.494	6.664	-0.43381	-0.08264	0.53864	0.71747	22.6	13111	100
2025-5-25 10:37:23.842	WT901BLE68(801231B9234C)	-0.099	1.125	-0.004	-63.354	-62.988	-218.750	52.92	19.30	-179.54	-21.070	-39.494	6.664	-0.43381	-0.08264	0.53864	0.71747	22.6	13111	100
2025-5-25 10:37:23.843	WT901BLE68(801231B9234C)	-0.104	1.075	0.013	-66.467	-50.720	-217.651	50.81	22.08	177.19	-21.070	-39.494	6.664	-0.43381	-0.08264	0.53864	0.71747	22.6	13111	100
2025-5-25 10:37:23.901	WT901BLE68(801231B9234C)	-0.107	1.006	0.003	-69.702	-39.124	-213.745	48.50	24.72	173.74	-21.070	-39.494	6.664	0.15182	-0.17245	0.40857	0.88327	22.6	13111	100
2025-5-25 10:37:23.902	WT901BLE68(801231B9234C)	-0.112	0.966	-0.015	-69.641	-28.320	-206.055	46.03	27.10	169.98	-21.070	-39.494	6.664	0.15182	-0.17245	0.40857	0.88327	22.6	13111	100
2025-5-25 10:37:23.931	WT901BLE68(801231B9234C)	-0.129	0.990	-0.012	-67.261	-20.813	-193.054	43.46	29.19	166.04	-21.070	-39.494	6.664	0.15182	-0.17245	0.40857	0.88327	22.6	13111	100
