time	DeviceName	AccX(g)	AccY(g)	AccZ(g)	AsX(°/s)	AsY(°/s)	AsZ(°/s)	AngleX(°)	AngleY(°)	AngleZ(°)	HX(uT)	HY(uT)	HZ(uT)	Q0()	Q1()	Q2()	Q3()	Temperature(°C)	Version()	Battery level(%)
2025-5-24 8:43:2.353	WT901BLE68(801231B9234C)	-0.225	1.353	0.086	53.406	73.792	276.855	103.14	14.28	-39.79	30.674	-53.900	-18.620	-0.51718	-0.76154	0.11395	0.37347	20.8	13111	100
2025-5-24 8:43:2.353	WT901BLE68(801231B9234C)	-0.314	1.308	0.104	46.082	108.459	265.503	104.02	8.63	-39.58	30.674	-53.900	-18.620	-0.51718	-0.76154	0.11395	0.37347	20.8	13111	100
2025-5-24 8:43:2.382	WT901BLE68(801231B9234C)	-0.368	1.268	0.095	38.208	127.014	256.042	104.75	3.13	-39.02	30.674	-53.900	-18.620	-0.51718	-0.76154	0.11395	0.37347	20.8	13111	100
2025-5-24 8:43:2.383	WT901BLE68(801231B9234C)	-0.433	1.250	0.120	28.198	128.967	246.216	105.23	-2.16	-38.36	30.674	-53.900	-18.620	-0.51718	-0.76154	0.11395	0.37347	20.8	13111	100
2025-5-24 8:43:2.413	WT901BLE68(801231B9234C)	-0.483	1.231	0.132	17.456	120.972	235.046	105.42	-7.17	-37.78	30.674	-53.900	-18.620	-0.51718	-0.76154	0.11395	0.37347	20.8	13111	100
2025-5-24 8:43:2.413	WT901BLE68(801231B9234C)	-0.540	1.219	0.137	9.338	108.154	220.886	105.40	-11.79	-37.35	30.674	-53.900	-18.620	-0.51718	-0.76154	0.11395	0.37347	20.8	13111	100
2025-5-24 8:43:2.473	WT901BLE68(801231B9234C)	-0.625	1.192	0.192	2.625	95.825	198.730	105.21	-15.91	-37.06	30.674	-53.900	-18.620	-0.51718	-0.76154	0.11395	0.37347	20.8	13111	100
2025-5-24 8:43:2.474	WT901BLE68(801231B9234C)	-0.757	1.116	0.288	-2.930	88.013	168.579	104.86	-19.39	-36.75	30.674	-53.900	-18.620	-0.51718	-0.76154	0.11395	0.37347	20.8	13111	100
2025-5-24 8:43:2.502	WT901BLE68(801231B9234C)	-0.792	1.020	0.395	-8.301	66.528	129.944	104.40	-22.04	-36.49	-33.418	-47.236	-10.486	-0.51718	-0.76154	0.11395	0.37347	20.8	13111	100
2025-5-24 8:43:2.503	WT901BLE68(801231B9234C)	-0.684	1.003	0.436	-9.155	28.442	95.093	104.06	-23.75	-36.69	-33.418	-47.236	-10.486	-0.51718	-0.76154	0.11395	0.37347	20.8	13111	100
2025-5-24 8:43:2.533	WT901BLE68(801231B9234C)	-0.579	1.031	0.425	-13.184	-4.211	64.087	103.89	-24.59	-37.46	-33.418	-47.236	-10.486	-0.51718	-0.76154	0.11395	0.37347	20.8	13111	100
2025-5-24 8:43:2.533	WT901BLE68(801231B9234C)	-0.553	1.032	0.356	-17.578	-15.747	34.180	103.72	-24.75	-38.46	-33.418	-47.236	-10.486	-0.51718	-0.76154	0.11395	0.37347	20.8	13111	100
2025-5-24 8:43:2.594	WT901BLE68(801231B9234C)	-0.497	1.085	0.296	-20.142	-8.057	3.235	103.40	-24.30	-39.25	-33.418	-47.236	-10.486	-0.51718	-0.76154	0.11395	0.37347	20.8	13111	100
2025-5-24 8:43:2.594	WT901BLE68(801231B9234C)	-0.495	1.075	0.254	-23.865	11.047	-24.414	102.81	-23.40	-39.55	-33.418	-47.236	-10.486	-0.51718	-0.76154	0.11395	0.37347	20.8	13111	100
2025-5-24 8:43:2.625	WT901BLE68(801231B9234C)	-0.501	1.055	0.247	-26.062	24.170	-54.138	101.95	-22.01	-39.35	-33.418	-47.236	-10.486	-0.51718	-0.76154	0.11395	0.37347	20.8	13111	100
2025-5-24 8:43:2.625	WT901BLE68(801231B9234C)	-0.453	1.209	0.189	-23.193	29.419	-81.482	101.06	-20.10	-38.89	-33.418	-47.236	-10.486	-0.51718	-0.76154	0.11395	0.37347	20.8	13111	100
2025-5-24 8:43:2.655	WT901BLE68(801231B9234C)	-0.432	1.264	0.142	-26.184	30.212	-106.262	100.14	-17.75	-38.31	-33.418	-47.236	-10.486	-0.51718	-0.76154	0.11395	0.37347	20.8	13111	100
2025-5-24 8:43:2.655	WT901BLE68(801231B9234C)	-0.393	1.329	0.114	-23.132	28.687	-133.789	99.27	-14.89	-37.69	-33.418	-47.236	-10.486	-0.63718	-0.68939	0.32678	0.10876	20.8	13111	100
2025-5-24 8:43:2.713	WT901BLE68(801231B9234C)	-0.346	1.369	0.078	-20.325	24.719	-156.128	98.54	-11.59	-37.10	-33.418	-47.236	-10.486	-0.63718	-0.68939	0.32678	0.10876	20.8	13111	100
2025-5-24 8:43:2.713	WT901BLE68(801231B9234C)	-0.349	1.351	0.043	-16.174	19.226	-179.077	97.94	-7.87	-36.57	-33.418	-47.236	-10.486	-0.63718	-0.68939	0.32678	0.10876	20.8	13111	100
2025-5-24 8:43:2.749	WT901BLE68(801231B9234C)	-0.370	1.364	0.011	-7.385	9.216	-197.632	97.56	-3.78	-36.18	-33.418	-47.236	-10.486	-0.63718	-0.68939	0.32678	0.10876	20.8	13111	100
2025-5-24 8:43:2.749	WT901BLE68(801231B9234C)	-0.372	1.439	-0.007	0.122	-11.230	-210.510	97.41	0.59	-36.08	-33.418	-47.236	-10.486	-0.63718	-0.68939	0.32678	0.10876	20.8	13111	100
2025-5-24 8:43:2.773	WT901BLE68(801231B9234C)	-0.347	1.520	-0.039	4.700	-37.476	-216.431	97.39	5.13	-36.43	-33.418	-47.236	-10.486	-0.63718	-0.68939	0.32678	0.10876	20.8	13111	100
2025-5-24 8:43:2.773	WT901BLE68(801231B9234C)	-0.312	1.562	-0.084	8.301	-63.354	-217.102	97.38	9.73	-37.28	-33.418	-47.236	-10.486	-0.63718	-0.68939	0.32678	0.10876	20.8	13111	100
2025-5-24 8:43:2.836	WT901BLE68(801231B9234C)	-0.283	1.581	-0.120	10.986	-85.266	-214.905	97.29	14.29	-38.59	-33.418	-47.236	-10.486	-0.63718	-0.68939	0.32678	0.10876	20.8	13111	100
2025-5-24 8:43:2.837	WT901BLE68(801231B9234C)	-0.237	1.522	-0.113	10.620	-99.304	-211.365	97.03	18.76	-40.25	-33.418	-47.236	-10.486	-0.63718	-0.68939	0.32678	0.10876	20.8	13111	100
2025-5-24 8:43:2.865	WT901BLE68(801231B9234C)	-0.197	1.422	-0.096	11.475	-108.582	-211.060	96.58	23.15	-42.17	-33.418	-47.236	-10.486	-0.63718	-0.68939	0.32678	0.10876	20.8	13111	100
2025-5-24 8:43:2.865	WT901BLE68(801231B9234C)	-0.157	1.320	-0.092	11.475	-112.915	-212.891	95.92	27.49	-44.26	-11.172	-58.114	-14.112	-0.63718	-0.68939	0.32678	0.10876	20.8	13111	100
2025-5-24 8:43:2.895	WT901BLE68(801231B9234C)	-0.139	1.207	-0.088	11.963	-113.892	-217.957	95.07	31.82	-46.47	-11.172	-58.114	-14.112	-0.63718	-0.68939	0.32678	0.10876	20.8	13111	100
2025-5-24 8:43:2.895	WT901BLE68(801231B9234C)	-0.145	1.118	-0.083	13.123	-113.770	-225.220	94.03	36.19	-48.76	-11.172	-58.114	-14.112	-0.63718	-0.68939	0.32678	0.10876	20.8	13111	100
2025-5-24 8:43:2.953	WT901BLE68(801231B9234C)	-0.142	1.060	-0.074	14.893	-114.929	-231.018	92.79	40.59	-51.17	-11.172	-58.114	-14.112	-0.63718	-0.68939	0.32678	0.10876	20.8	13111	100
2025-5-24 8:43:2.953	WT901BLE68(801231B9234C)	-0.134	1.022	-0.063	15.564	-117.554	-234.192	91.26	44.97	-53.77	-11.172	-58.114	-14.112	-0.63718	-0.68939	0.32678	0.10876	20.8	13111	100
2025-5-24 8:43:2.983	WT901BLE68(801231B9234C)	-0.128	1.011	-0.053	15.625	-119.080	-233.521	89.35	49.28	-56.60	-11.172	-58.114	-14.112	-0.63718	-0.68939	0.32678	0.10876	20.8	13111	100
2025-5-24 8:43:2.983	WT901BLE68(801231B9234C)	-0.117	1.000	-0.049	15.442	-117.371	-228.577	87.04	53.42	-59.64	-11.172	-58.114	-14.112	-0.63718	-0.68939	0.32678	0.10876	20.8	13111	100
2025-5-24 8:43:3.12	WT901BLE68(801231B9234C)	-0.117	1.003	-0.037	16.785	-112.305	-218.079	84.37	57.32	-62.83	-11.172	-58.114	-14.112	-0.63718	-0.68939	0.32678	0.10876	20.8	13111	100
2025-5-24 8:43:3.12	WT901BLE68(801231B9234C)	-0.113	0.967	-0.008	14.404	-105.103	-205.750	81.32	60.92	-66.20	-11.172	-58.114	-14.112	-0.63718	-0.68939	0.32678	0.10876	20.8	13111	100
2025-5-24 8:43:3.74	WT901BLE68(801231B9234C)	-0.110	0.921	0.029	13.916	-94.910	-190.552	77.88	64.20	-69.77	-11.172	-58.114	-14.112	-0.63718	-0.68939	0.32678	0.10876	20.8	13111	100
2025-5-24 8:43:3.74	WT901BLE68(801231B9234C)	-0.068	0.948	0.060	13.245	-81.177	-169.739	74.31	67.07	-73.32	-11.172	-58.114	-14.112	-0.63718	-0.68939	0.32678	0.10876	20.8	13111	100
2025-5-24 8:43:3.103	WT901BLE68(801231B9234C)	-0.011	0.936	0.089	6.897	-64.209	-146.545	70.77	69.51	-76.58	-11.172	-58.114	-14.112	-0.32126	-0.66214	-0.06320	0.67401	20.8	13111	100
2025-5-24 8:43:3.103	WT901BLE68(801231B9234C)	-0.007	0.859	0.093	4.456	-35.583	-116.699	68.16	71.53	-78.70	-11.172	-58.114	-14.112	-0.32126	-0.66214	-0.06320	0.67401	20.8	13111	100
2025-5-24 8:43:3.133	WT901BLE68(801231B9234C)	-0.068	0.781	0.111	9.155	1.465	-75.867	67.94	73.12	-78.27	-11.172	-58.114	-14.112	-0.32126	-0.66214	-0.06320	0.67401	20.8	13111	100
2025-5-24 8:43:3.133	WT901BLE68(801231B9234C)	-0.101	0.816	0.143	19.043	38.208	-20.508	71.53	74.01	-74.05	-11.172	-58.114	-14.112	-0.32126	-0.66214	-0.06320	0.67401	20.8	13111	100
2025-5-24 8:43:3.193	WT901BLE68(801231B9234C)	-0.114	0.825	0.152	23.499	63.477	44.617	78.50	73.75	-66.41	-11.172	-58.114	-14.112	-0.32126	-0.66214	-0.06320	0.67401	20.8	13111	100
2025-5-24 8:43:3.194	WT901BLE68(801231B9234C)	-0.165	0.784	0.143	31.494	87.585	108.398	86.88	71.98	-57.35	-11.172	-58.114	-14.112	-0.32126	-0.66214	-0.06320	0.67401	20.8	13111	100
2025-5-24 8:43:3.222	WT901BLE68(801231B9234C)	-0.260	0.748	0.157	43.213	115.601	160.400	95.00	68.71	-48.67	-11.172	-58.114	-14.112	-0.32126	-0.66214	-0.06320	0.67401	20.8	13111	100
2025-5-24 8:43:3.222	WT901BLE68(801231B9234C)	-0.371	0.819	0.220	52.979	130.798	195.557	101.60	64.25	-41.65	-11.172	-58.114	-14.112	-0.32126	-0.66214	-0.06320	0.67401	20.8	13111	100
2025-5-24 8:43:3.256	WT901BLE68(801231B9234C)	-0.430	1.064	0.285	56.580	125.549	224.182	106.19	59.00	-36.77	-11.172	-58.114	-14.112	-0.32126	-0.66214	-0.06320	0.67401	20.8	13111	100
2025-5-24 8:43:3.256	WT901BLE68(801231B9234C)	-0.398	1.371	0.277	44.189	97.534	250.366	108.64	53.27	-34.04	-11.172	-58.114	-14.112	-0.32126	-0.66214	-0.06320	0.67401	20.8	13111	100
2025-5-24 8:43:3.314	WT901BLE68(801231B9234C)	-0.320	1.489	0.191	28.320	57.922	269.897	109.29	47.38	-33.09	31.458	-57.134	-4.704	-0.32126	-0.66214	-0.06320	0.67401	20.8	13111	100
2025-5-24 8:43:3.314	WT901BLE68(801231B9234C)	-0.264	1.506	0.114	20.996	29.724	283.142	108.95	41.47	-33.21	31.458	-57.134	-4.704	-0.32126	-0.66214	-0.06320	0.67401	20.8	13111	100
2025-5-24 8:43:3.351	WT901BLE68(801231B9234C)	-0.195	1.500	0.089	16.479	27.771	288.025	108.46	35.51	-33.54	31.458	-57.134	-4.704	-0.32126	-0.66214	-0.06320	0.67401	20.8	13111	100
2025-5-24 8:43:3.351	WT901BLE68(801231B9234C)	-0.138	1.389	0.111	10.376	49.805	283.813	108.20	29.51	-33.42	31.458	-57.134	-4.704	-0.32126	-0.66214	-0.06320	0.67401	20.8	13111	100
2025-5-24 8:43:3.403	WT901BLE68(801231B9234C)	-0.164	1.267	0.125	7.813	89.905	272.095	108.25	23.64	-33.14	31.458	-57.134	-4.704	-0.32126	-0.66214	-0.06320	0.67401	20.8	13111	100
2025-5-24 8:43:3.404	WT901BLE68(801231B9234C)	-0.247	1.218	0.107	2.441	133.057	256.958	108.35	18.16	-33.93	31.458	-57.134	-4.704	-0.32126	-0.66214	-0.06320	0.67401	20.8	13111	100
2025-5-24 8:43:3.434	WT901BLE68(801231B9234C)	-0.302	1.180	0.048	-6.653	167.175	239.563	108.42	12.71	-33.65	31.458	-57.134	-4.704	-0.32126	-0.66214	-0.06320	0.67401	20.8	13111	100
2025-5-24 8:43:3.434	WT901BLE68(801231B9234C)	-0.357	1.146	-0.025	-12.634	182.190	225.159	108.32	7.40	-32.66	31.458	-57.134	-4.704	-0.32126	-0.66214	-0.06320	0.67401	20.8	13111	100
2025-5-24 8:43:3.466	WT901BLE68(801231B9234C)	-0.473	1.164	-0.032	-15.991	182.373	210.938	108.01	2.35	-31.32	31.458	-57.134	-4.704	-0.32126	-0.66214	-0.06320	0.67401	20.8	13111	100
2025-5-24 8:43:3.466	WT901BLE68(801231B9234C)	-0.567	1.226	0.014	-22.156	160.339	199.890	107.47	-2.31	-30.04	31.458	-57.134	-4.704	-0.57602	-0.77524	0.22733	0.12421	20.8	13111	100
2025-5-24 8:43:3.524	WT901BLE68(801231B9234C)	-0.590	1.250	0.079	-30.029	117.798	193.298	106.72	-6.53	-29.30	31.458	-57.134	-4.704	-0.57602	-0.77524	0.22733	0.12421	20.8	13111	100
2025-5-24 8:43:3.524	WT901BLE68(801231B9234C)	-0.586	1.150	0.144	-34.485	76.660	185.852	105.90	-10.29	-29.28	31.458	-57.134	-4.704	-0.57602	-0.77524	0.22733	0.12421	20.8	13111	100
2025-5-24 8:43:3.552	WT901BLE68(801231B9234C)	-0.658	1.030	0.234	-32.776	50.842	172.485	105.16	-13.60	-29.73	31.458	-57.134	-4.704	-0.57602	-0.77524	0.22733	0.12421	20.8	13111	100
2025-5-24 8:43:3.552	WT901BLE68(801231B9234C)	-0.699	1.029	0.307	-27.649	32.715	149.719	104.57	-16.38	-30.43	31.458	-57.134	-4.704	-0.57602	-0.77524	0.22733	0.12421	20.8	13111	100
2025-5-24 8:43:3.583	WT901BLE68(801231B9234C)	-0.667	1.128	0.301	-26.489	15.015	121.399	104.12	-18.51	-31.30	31.458	-57.134	-4.704	-0.57602	-0.77524	0.22733	0.12421	20.8	13111	100
2025-5-24 8:43:3.583	WT901BLE68(801231B9234C)	-0.607	1.123	0.236	-27.405	7.263	89.844	103.68	-19.95	-32.23	31.458	-57.134	-4.704	-0.57602	-0.77524	0.22733	0.12421	20.8	13111	100
2025-5-24 8:43:3.651	WT901BLE68(801231B9234C)	-0.513	1.156	0.183	-21.484	13.794	52.185	103.25	-20.69	-32.92	31.458	-57.134	-4.704	-0.57602	-0.77524	0.22733	0.12421	20.8	13111	100
2025-5-24 8:43:3.651	WT901BLE68(801231B9234C)	-0.441	1.113	0.190	-20.264	29.419	15.442	102.72	-20.75	-33.11	31.458	-57.134	-4.704	-0.57602	-0.77524	0.22733	0.12421	20.8	13111	100
2025-5-24 8:43:3.676	WT901BLE68(801231B9234C)	-0.440	1.013	0.196	-17.395	43.945	-18.372	102.02	-20.23	-32.81	31.458	-57.134	-4.704	-0.57602	-0.77524	0.22733	0.12421	20.8	13111	100
2025-5-24 8:43:3.676	WT901BLE68(801231B9234C)	-0.459	1.209	0.121	-8.789	62.500	-55.481	101.34	-19.06	-32.01	-34.986	-45.276	-14.014	-0.57602	-0.77524	0.22733	0.12421	20.8	13111	100
2025-5-24 8:43:3.706	WT901BLE68(801231B9234C)	-0.460	1.179	0.085	-13.184	78.552	-77.942	100.50	-17.43	-30.73	-34.986	-45.276	-14.014	-0.57602	-0.77524	0.22733	0.12421	20.8	13111	100
2025-5-24 8:43:3.706	WT901BLE68(801231B9234C)	-0.438	1.161	0.048	-4.700	83.252	-102.905	99.74	-15.38	-29.20	-34.986	-45.276	-14.014	-0.57602	-0.77524	0.22733	0.12421	20.8	13111	100
2025-5-24 8:43:3.766	WT901BLE68(801231B9234C)	-0.417	1.187	0.007	3.662	74.402	-124.695	99.23	-12.87	-27.71	-34.986	-45.276	-14.014	-0.57602	-0.77524	0.22733	0.12421	20.8	13111	100
2025-5-24 8:43:3.766	WT901BLE68(801231B9234C)	-0.397	1.259	-0.026	14.282	55.847	-142.822	99.08	-9.95	-26.49	-34.986	-45.276	-14.014	-0.57602	-0.77524	0.22733	0.12421	20.8	13111	100
2025-5-24 8:43:3.795	WT901BLE68(801231B9234C)	-0.402	1.324	-0.065	25.024	31.555	-156.616	99.28	-6.71	-25.66	-34.986	-45.276	-14.014	-0.57602	-0.77524	0.22733	0.12421	20.8	13111	100
2025-5-24 8:43:3.795	WT901BLE68(801231B9234C)	-0.420	1.320	-0.086	33.752	3.113	-164.978	99.78	-3.22	-25.29	-34.986	-45.276	-14.014	-0.57602	-0.77524	0.22733	0.12421	20.8	13111	100
2025-5-24 8:43:3.826	WT901BLE68(801231B9234C)	-0.426	1.308	-0.095	45.288	-33.813	-168.640	100.54	0.43	-25.51	-34.986	-45.276	-14.014	-0.57602	-0.77524	0.22733	0.12421	20.8	13111	100
2025-5-24 8:43:3.827	WT901BLE68(801231B9234C)	-0.399	1.382	-0.104	56.274	-78.064	-166.565	101.51	4.20	-26.47	-34.986	-45.276	-14.014	-0.57602	-0.77524	0.22733	0.12421	20.8	13111	100
2025-5-24 8:43:3.914	WT901BLE68(801231B9234C)	-0.333	1.387	-0.085	56.030	-120.789	-162.964	102.43	8.06	-28.22	-34.986	-45.276	-14.014	-0.57602	-0.77524	0.22733	0.12421	20.8	13111	100
2025-5-24 8:43:3.915	WT901BLE68(801231B9234C)	-0.261	1.288	-0.059	53.650	-148.682	-164.673	103.08	12.02	-30.59	-34.986	-45.276	-14.014	-0.57602	-0.77524	0.22733	0.12421	20.8	13111	100
2025-5-24 8:43:3.915	WT901BLE68(801231B9234C)	-0.207	1.198	-0.054	51.636	-163.391	-171.875	103.45	16.14	-33.29	-34.986	-45.276	-14.014	-0.54898	-0.77182	0.14279	0.28702	20.8	13111	100
2025-5-24 8:43:3.916	WT901BLE68(801231B9234C)	-0.172	1.109	-0.031	47.119	-169.678	-183.044	103.52	20.43	-36.12	-34.986	-45.276	-14.014	-0.54898	-0.77182	0.14279	0.28702	20.8	13111	100
2025-5-24 8:43:3.950	WT901BLE68(801231B9234C)	-0.155	1.052	0.019	39.734	-169.739	-197.876	103.24	24.93	-38.98	-34.986	-45.276	-14.014	-0.54898	-0.77182	0.14279	0.28702	20.8	13111	100
2025-5-24 8:43:3.950	WT901BLE68(801231B9234C)	-0.129	1.007	0.042	31.555	-167.419	-211.731	102.59	29.61	-41.86	-34.986	-45.276	-14.014	-0.54898	-0.77182	0.14279	0.28702	20.8	13111	100
2025-5-24 8:43:4.3	WT901BLE68(801231B9234C)	-0.100	0.984	0.051	23.682	-160.828	-223.572	101.55	34.41	-44.74	-34.986	-45.276	-14.014	-0.54898	-0.77182	0.14279	0.28702	20.8	13111	100
2025-5-24 8:43:4.3	WT901BLE68(801231B9234C)	-0.094	1.034	0.056	17.334	-148.438	-230.347	100.22	39.23	-47.53	-34.986	-45.276	-14.014	-0.54898	-0.77182	0.14279	0.28702	20.8	13111	100
2025-5-24 8:43:4.52	WT901BLE68(801231B9234C)	-0.070	1.116	0.063	9.155	-134.033	-229.919	98.62	43.89	-50.14	-34.986	-45.276	-14.014	-0.54898	-0.77182	0.14279	0.28702	20.8	13111	100
2025-5-24 8:43:4.52	WT901BLE68(801231B9234C)	-0.036	1.159	0.070	-2.319	-119.934	-223.450	96.84	48.30	-52.32	-34.986	-45.276	-14.014	-0.54898	-0.77182	0.14279	0.28702	20.8	13111	100
2025-5-24 8:43:4.64	WT901BLE68(801231B9234C)	-0.016	1.148	0.093	-12.878	-102.417	-213.562	95.08	52.45	-53.72	-34.986	-45.276	-14.014	-0.54898	-0.77182	0.14279	0.28702	20.8	13111	100
2025-5-24 8:43:4.64	WT901BLE68(801231B9234C)	-0.020	1.119	0.109	-19.714	-80.566	-199.402	93.49	56.34	-54.48	-34.986	-45.276	-14.014	-0.54898	-0.77182	0.14279	0.28702	20.8	13111	100
2025-5-24 8:43:4.149	WT901BLE68(801231B9234C)	-0.015	1.086	0.135	-26.245	-55.542	-180.847	92.28	59.84	-54.55	24.206	-59.976	-8.330	-0.54898	-0.77182	0.14279	0.28702	20.8	13111	100
2025-5-24 8:43:4.149	WT901BLE68(801231B9234C)	0.004	1.064	0.139	-29.724	-35.034	-158.813	91.61	62.90	-53.85	24.206	-59.976	-8.330	-0.54898	-0.77182	0.14279	0.28702	20.8	13111	100
2025-5-24 8:43:4.154	WT901BLE68(801231B9234C)	0.051	1.062	0.116	-31.616	-18.494	-128.540	91.55	65.39	-52.42	24.206	-59.976	-8.330	-0.54898	-0.77182	0.14279	0.28702	20.8	13111	100
2025-5-24 8:43:4.154	WT901BLE68(801231B9234C)	0.070	0.988	0.096	-32.166	0.183	-90.759	92.30	67.15	-50.09	24.206	-59.976	-8.330	-0.54898	-0.77182	0.14279	0.28702	20.8	13111	100
2025-5-24 8:43:4.184	WT901BLE68(801231B9234C)	0.040	0.946	0.081	-20.874	23.804	-42.236	94.25	67.95	-46.60	24.206	-59.976	-8.330	-0.54898	-0.77182	0.14279	0.28702	20.8	13111	100
2025-5-24 8:43:4.184	WT901BLE68(801231B9234C)	-0.013	1.015	0.057	-8.423	48.645	19.043	97.47	67.50	-42.05	24.206	-59.976	-8.330	-0.54898	-0.77182	0.14279	0.28702	20.8	13111	100
2025-5-24 8:43:4.273	WT901BLE68(801231B9234C)	-0.077	0.983	0.034	2.380	69.336	82.886	101.08	65.62	-37.27	24.206	-59.976	-8.330	-0.54898	-0.77182	0.14279	0.28702	20.8	13111	100
2025-5-24 8:43:4.273	WT901BLE68(801231B9234C)	-0.150	0.895	0.042	20.081	88.318	143.677	104.48	62.35	-32.96	24.206	-59.976	-8.330	-0.54898	-0.77182	0.14279	0.28702	20.8	13111	100
2025-5-24 8:43:4.540	WT901BLE68(801231B9234C)	-0.252	0.856	0.104	40.466	99.731	190.247	107.43	57.93	-29.50	24.206	-59.976	-8.330	-0.54898	-0.77182	0.14279	0.28702	20.8	13111	100
2025-5-24 8:43:4.541	WT901BLE68(801231B9234C)	-0.256	1.096	0.199	54.260	96.130	225.098	109.66	52.72	-27.15	24.206	-59.976	-8.330	-0.42230	-0.78314	-0.05896	0.45248	20.8	13111	100
2025-5-24 8:43:4.541	WT901BLE68(801231B9234C)	-0.274	1.253	0.232	60.791	78.430	258.301	111.08	46.98	-25.98	24.206	-59.976	-8.330	-0.42230	-0.78314	-0.05896	0.45248	20.8	13111	100
2025-5-24 8:43:4.541	WT901BLE68(801231B9234C)	-0.229	1.553	0.187	49.255	51.880	283.264	111.61	40.94	-25.89	24.206	-59.976	-8.330	-0.42230	-0.78314	-0.05896	0.45248	20.8	13111	100
2025-5-24 8:43:4.541	WT901BLE68(801231B9234C)	-0.141	1.680	0.104	30.945	28.015	303.162	111.32	34.73	-26.57	24.206	-59.976	-8.330	-0.42230	-0.78314	-0.05896	0.45248	20.8	13111	100
2025-5-24 8:43:4.541	WT901BLE68(801231B9234C)	-0.112	1.666	-0.018	23.376	22.278	313.049	110.81	28.39	-27.50	24.206	-59.976	-8.330	-0.42230	-0.78314	-0.05896	0.45248	20.8	13111	100
2025-5-24 8:43:4.541	WT901BLE68(801231B9234C)	-0.085	1.544	-0.089	19.409	33.264	312.561	110.46	21.99	-28.21	24.206	-59.976	-8.330	-0.42230	-0.78314	-0.05896	0.45248	20.8	13111	100
2025-5-24 8:43:4.541	WT901BLE68(801231B9234C)	-0.085	1.386	-0.049	17.151	61.279	300.720	110.36	15.61	-28.38	24.206	-59.976	-8.330	-0.42230	-0.78314	-0.05896	0.45248	20.8	13111	100
2025-5-24 8:43:4.542	WT901BLE68(801231B9234C)	-0.214	1.257	0.023	15.381	102.051	276.062	110.48	9.39	-27.70	24.206	-59.976	-8.330	-0.42230	-0.78314	-0.05896	0.45248	20.8	13111	100
2025-5-24 8:43:4.542	WT901BLE68(801231B9234C)	-0.346	1.162	0.061	7.996	131.653	247.192	110.53	3.71	-27.31	24.206	-59.976	-8.330	-0.42230	-0.78314	-0.05896	0.45248	20.8	13111	100
2025-5-24 8:43:4.814	WT901BLE68(801231B9234C)	-0.372	1.056	0.078	1.526	136.047	222.717	110.41	-1.37	-27.11	24.206	-59.976	-8.330	-0.42230	-0.78314	-0.05896	0.45248	20.8	13111	100
2025-5-24 8:43:4.815	WT901BLE68(801231B9234C)	-0.375	0.984	0.094	-2.319	126.343	198.853	110.17	-5.89	-26.85	24.206	-59.976	-8.330	-0.42230	-0.78314	-0.05896	0.45248	20.8	13111	100
2025-5-24 8:43:4.816	WT901BLE68(801231B9234C)	-0.406	0.998	0.116	-3.418	118.164	172.058	109.84	-9.82	-26.53	24.206	-59.976	-8.330	-0.42230	-0.78314	-0.05896	0.45248	20.8	13111	100
2025-5-24 8:43:4.816	WT901BLE68(801231B9234C)	-0.443	1.069	0.139	-8.301	113.342	148.376	109.40	-13.16	-26.10	24.206	-59.976	-8.330	-0.42230	-0.78314	-0.05896	0.45248	20.8	13111	100
2025-5-24 8:43:4.817	WT901BLE68(801231B9234C)	-0.491	1.059	0.197	-16.663	113.525	129.822	108.73	-16.05	-25.52	24.206	-59.976	-8.330	-0.42230	-0.78314	-0.05896	0.45248	20.8	13111	100
2025-5-24 8:43:4.817	WT901BLE68(801231B9234C)	-0.510	1.046	0.256	-22.705	114.929	115.051	107.83	-18.58	-24.74	24.206	-59.976	-8.330	-0.42230	-0.78314	-0.05896	0.45248	20.8	13111	100
2025-5-24 8:43:4.818	WT901BLE68(801231B9234C)	-0.492	1.105	0.286	-28.076	121.765	102.722	106.70	-20.82	-23.73	24.206	-59.976	-8.330	-0.42230	-0.78314	-0.05896	0.45248	20.8	13111	100
2025-5-24 8:43:4.818	WT901BLE68(801231B9234C)	-0.562	1.198	0.176	-30.579	142.273	89.417	105.29	-22.84	-22.25	24.206	-59.976	-8.330	-0.42230	-0.78314	-0.05896	0.45248	20.8	13111	100
2025-5-24 8:43:4.844	WT901BLE68(801231B9234C)	-0.721	1.147	0.140	-37.231	168.091	65.613	103.40	-24.54	-20.00	-27.734	-52.332	-11.172	-0.42230	-0.78314	-0.05896	0.45248	20.8	13111	100
2025-5-24 8:43:4.845	WT901BLE68(801231B9234C)	-0.765	1.093	0.102	-30.334	174.072	33.020	101.30	-25.63	-17.19	-27.734	-52.332	-11.172	-0.42230	-0.78314	-0.05896	0.45248	20.8	13111	100
2025-5-24 8:43:4.846	WT901BLE68(801231B9234C)	-0.667	1.041	0.118	-22.400	154.541	-1.953	99.37	-25.85	-14.39	-27.734	-52.332	-11.172	-0.42230	-0.78314	-0.05896	0.45248	20.8	13111	100
2025-5-24 8:43:4.846	WT901BLE68(801231B9234C)	-0.586	0.916	0.118	-13.123	118.958	-31.738	97.86	-25.25	-12.11	-27.734	-52.332	-11.172	-0.42230	-0.78314	-0.05896	0.45248	20.8	13111	100
2025-5-24 8:43:4.906	WT901BLE68(801231B9234C)	-0.613	1.053	0.056	5.371	79.285	-64.514	97.08	-23.87	-10.62	-27.734	-52.332	-11.172	-0.42230	-0.78314	-0.05896	0.45248	20.8	13111	100
2025-5-24 8:43:4.907	WT901BLE68(801231B9234C)	-0.648	1.133	-0.016	8.850	42.908	-85.022	96.83	-21.87	-9.87	-27.734	-52.332	-11.172	-0.42230	-0.78314	-0.05896	0.45248	20.8	13111	100
2025-5-24 8:43:4.907	WT901BLE68(801231B9234C)	-0.593	1.185	-0.036	22.034	2.075	-102.478	97.09	-19.45	-9.89	-27.734	-52.332	-11.172	-0.42230	-0.78314	-0.05896	0.45248	20.8	13111	100
2025-5-24 8:43:4.907	WT901BLE68(801231B9234C)	-0.456	1.337	-0.048	31.616	-36.926	-121.460	97.84	-16.58	-10.66	-27.734	-52.332	-11.172	-0.42230	-0.78314	-0.05896	0.45248	20.8	13111	100
2025-5-24 8:43:4.908	WT901BLE68(801231B9234C)	-0.343	1.401	-0.076	38.269	-61.096	-140.076	98.84	-13.30	-11.91	-27.734	-52.332	-11.172	-0.42230	-0.78314	-0.05896	0.45248	20.8	13111	100
2025-5-24 8:43:4.908	WT901BLE68(801231B9234C)	-0.324	1.436	-0.078	44.495	-69.519	-161.438	99.91	-9.60	-13.26	-27.734	-52.332	-11.172	-0.42230	-0.78314	-0.05896	0.45248	20.8	13111	100
2025-5-24 8:43:4.909	WT901BLE68(801231B9234C)	-0.344	1.480	-0.061	51.147	-75.256	-178.589	101.01	-5.55	-14.53	-27.734	-52.332	-11.172	-0.42230	-0.78314	-0.05896	0.45248	20.8	13111	100
2025-5-24 8:43:4.909	WT901BLE68(801231B9234C)	-0.344	1.481	-0.079	57.190	-86.853	-189.941	102.13	-1.26	-15.81	-27.734	-52.332	-11.172	-0.42230	-0.78314	-0.05896	0.45248	20.8	13111	100
2025-5-24 8:43:4.909	WT901BLE68(801231B9234C)	-0.325	1.535	-0.099	64.453	-107.544	-196.411	103.29	3.23	-17.28	-27.734	-52.332	-11.172	-0.60687	-0.78006	0.10400	0.11081	20.8	13111	100
2025-5-24 8:43:4.910	WT901BLE68(801231B9234C)	-0.274	1.621	-0.083	65.674	-125.793	-198.486	104.39	7.84	-19.01	-27.734	-52.332	-11.172	-0.60687	-0.78006	0.10400	0.11081	20.8	13111	100
2025-5-24 8:43:4.936	WT901BLE68(801231B9234C)	-0.188	1.547	-0.076	56.885	-137.634	-200.500	105.22	12.51	-20.91	-27.734	-52.332	-11.172	-0.60687	-0.78006	0.10400	0.11081	20.8	13111	100
2025-5-24 8:43:4.936	WT901BLE68(801231B9234C)	-0.144	1.306	-0.027	48.767	-139.038	-209.656	105.68	17.27	-22.80	-27.734	-52.332	-11.172	-0.60687	-0.78006	0.10400	0.11081	20.8	13111	100
2025-5-24 8:43:4.965	WT901BLE68(801231B9234C)	-0.125	1.163	0.024	42.297	-132.263	-220.886	105.92	22.14	-24.52	0.098	-60.368	-13.916	-0.60687	-0.78006	0.10400	0.11081	20.8	13111	100
2025-5-24 8:43:4.966	WT901BLE68(801231B9234C)	-0.123	1.042	0.098	31.799	-121.887	-233.826	105.93	27.13	-25.92	0.098	-60.368	-13.916	-0.60687	-0.78006	0.10400	0.11081	20.8	13111	100
2025-5-24 8:43:4.996	WT901BLE68(801231B9234C)	-0.128	0.943	0.126	24.841	-113.892	-244.141	105.76	32.20	-27.02	0.098	-60.368	-13.916	-0.60687	-0.78006	0.10400	0.11081	20.8	13111	100
2025-5-24 8:43:4.996	WT901BLE68(801231B9234C)	-0.131	0.931	0.138	19.836	-105.530	-248.596	105.52	37.26	-27.77	0.098	-60.368	-13.916	-0.60687	-0.78006	0.10400	0.11081	20.8	13111	100
2025-5-24 8:43:5.84	WT901BLE68(801231B9234C)	-0.110	0.990	0.155	14.160	-100.952	-246.643	105.25	42.21	-28.13	0.098	-60.368	-13.916	-0.60687	-0.78006	0.10400	0.11081	20.8	13111	100
2025-5-24 8:43:5.85	WT901BLE68(801231B9234C)	-0.077	1.049	0.192	1.648	-101.624	-236.816	104.82	46.95	-28.23	0.098	-60.368	-13.916	-0.60687	-0.78006	0.10400	0.11081	20.8	13111	100
2025-5-24 8:43:5.86	WT901BLE68(801231B9234C)	-0.041	1.061	0.294	-20.020	-101.501	-222.717	103.95	51.41	-28.28	0.098	-60.368	-13.916	-0.60687	-0.78006	0.10400	0.11081	20.8	13111	100
2025-5-24 8:43:5.86	WT901BLE68(801231B9234C)	0.019	1.024	0.342	-41.199	-97.961	-199.402	102.45	55.44	-28.47	0.098	-60.368	-13.916	-0.60687	-0.78006	0.10400	0.11081	20.8	13111	100
2025-5-24 8:43:5.116	WT901BLE68(801231B9234C)	0.093	0.969	0.363	-58.289	-80.383	-168.640	100.54	58.83	-28.66	0.098	-60.368	-13.916	-0.60687	-0.78006	0.10400	0.11081	20.8	13111	100
2025-5-24 8:43:5.116	WT901BLE68(801231B9234C)	0.143	0.916	0.359	-65.369	-47.424	-132.019	98.89	61.39	-28.26	0.098	-60.368	-13.916	-0.44727	-0.71530	-0.16251	0.51166	20.8	13111	100
2025-5-24 8:43:5.175	WT901BLE68(801231B9234C)	0.148	0.908	0.322	-63.599	-11.230	-96.497	98.21	63.07	-26.74	0.098	-60.368	-13.916	-0.44727	-0.71530	-0.16251	0.51166	20.8	13111	100
2025-5-24 8:43:5.176	WT901BLE68(801231B9234C)	0.065	0.910	0.327	-57.129	23.315	-67.017	98.83	63.98	-23.89	0.098	-60.368	-13.916	-0.44727	-0.71530	-0.16251	0.51166	20.8	13111	100
2025-5-24 8:43:5.206	WT901BLE68(801231B9234C)	-0.056	0.945	0.330	-47.363	50.232	-37.231	100.70	64.15	-19.87	0.098	-60.368	-13.916	-0.44727	-0.71530	-0.16251	0.51166	20.8	13111	100
2025-5-24 8:43:5.206	WT901BLE68(801231B9234C)	-0.125	1.082	0.301	-30.334	64.514	1.160	103.19	63.48	-15.46	0.098	-60.368	-13.916	-0.44727	-0.71530	-0.16251	0.51166	20.8	13111	100
2025-5-24 8:43:5.236	WT901BLE68(801231B9234C)	-0.179	1.183	0.289	-21.606	63.110	47.119	105.42	61.89	-11.59	0.098	-60.368	-13.916	-0.44727	-0.71530	-0.16251	0.51166	20.8	13111	100
2025-5-24 8:43:5.236	WT901BLE68(801231B9234C)	-0.214	1.153	0.262	-11.414	51.086	93.994	106.67	59.43	-8.96	0.098	-60.368	-13.916	-0.44727	-0.71530	-0.16251	0.51166	20.8	13111	100
2025-5-24 8:43:5.294	WT901BLE68(801231B9234C)	-0.216	1.107	0.218	-0.977	45.288	141.479	107.12	56.12	-7.48	0.098	-60.368	-13.916	-0.44727	-0.71530	-0.16251	0.51166	20.8	13111	100
2025-5-24 8:43:5.294	WT901BLE68(801231B9234C)	-0.263	1.021	0.210	8.972	55.298	177.002	107.36	52.04	-6.44	0.098	-60.368	-13.916	-0.44727	-0.71530	-0.16251	0.51166	20.8	13111	100
2025-5-24 8:43:5.325	WT901BLE68(801231B9234C)	-0.373	1.064	0.203	20.386	74.585	199.585	107.91	47.40	-5.26	38.710	-42.140	-16.856	-0.44727	-0.71530	-0.16251	0.51166	20.8	13111	100
2025-5-24 8:43:5.326	WT901BLE68(801231B9234C)	-0.408	1.256	0.204	24.719	78.186	217.468	108.55	42.36	-4.10	38.710	-42.140	-16.856	-0.44727	-0.71530	-0.16251	0.51166	20.8	13111	100
2025-5-24 8:43:5.357	WT901BLE68(801231B9234C)	-0.342	1.360	0.172	14.038	62.439	231.079	108.73	37.16	-3.42	38.710	-42.140	-16.856	-0.44727	-0.71530	-0.16251	0.51166	20.8	13111	100
2025-5-24 8:43:5.357	WT901BLE68(801231B9234C)	-0.277	1.338	0.074	5.859	48.950	240.234	108.41	31.92	-3.20	38.710	-42.140	-16.856	-0.44727	-0.71530	-0.16251	0.51166	20.8	13111	100
2025-5-24 8:43:5.414	WT901BLE68(801231B9234C)	-0.262	1.274	-0.042	3.296	50.842	246.277	108.00	26.64	-3.10	38.710	-42.140	-16.856	-0.44727	-0.71530	-0.16251	0.51166	20.8	13111	100
2025-5-24 8:43:5.414	WT901BLE68(801231B9234C)	-0.284	1.166	-0.040	0.671	62.622	246.765	107.66	21.31	-2.83	38.710	-42.140	-16.856	-0.44727	-0.71530	-0.16251	0.51166	20.8	13111	100
2025-5-24 8:43:5.443	WT901BLE68(801231B9234C)	-0.341	1.083	0.033	-1.343	75.745	243.713	107.38	16.02	-2.31	38.710	-42.140	-16.856	-0.44727	-0.71530	-0.16251	0.51166	20.8	13111	100
2025-5-24 8:43:5.443	WT901BLE68(801231B9234C)	-0.403	1.036	0.064	-7.385	82.397	241.455	107.06	10.80	-1.66	38.710	-42.140	-16.856	-0.44727	-0.71530	-0.16251	0.51166	20.8	13111	100
2025-5-24 8:43:5.776	WT901BLE68(801231B9234C)	-0.417	0.966	0.063	-16.357	84.351	241.760	106.55	5.69	-1.10	38.710	-42.140	-16.856	-0.44727	-0.71530	-0.16251	0.51166	20.8	13111	100
2025-5-24 8:43:5.776	WT901BLE68(801231B9234C)	-0.416	0.895	0.037	-20.569	84.534	243.835	105.91	0.71	-0.88	38.710	-42.140	-16.856	-0.44727	-0.71530	-0.16251	0.51166	20.8	13111	100
2025-5-24 8:43:5.776	WT901BLE68(801231B9234C)	-0.478	0.906	-0.002	-17.334	90.637	244.019	105.36	-4.17	-0.91	38.710	-42.140	-16.856	-0.60382	-0.79370	0.05002	-0.05316	20.8	13111	100
2025-5-24 8:43:5.776	WT901BLE68(801231B9234C)	-0.637	0.996	0.018	-16.174	100.098	235.962	104.89	-8.94	-0.85	38.710	-42.140	-16.856	-0.60382	-0.79370	0.05002	-0.05316	20.8	13111	100
2025-5-24 8:43:5.777	WT901BLE68(801231B9234C)	-0.884	1.093	0.052	-19.714	101.257	220.703	104.35	-13.42	-0.68	38.710	-42.140	-16.856	-0.60382	-0.79370	0.05002	-0.05316	20.8	13111	100
2025-5-24 8:43:5.777	WT901BLE68(801231B9234C)	-1.172	1.189	0.063	-20.630	94.788	190.002	103.76	-17.35	-0.47	38.710	-42.140	-16.856	-0.60382	-0.79370	0.05002	-0.05316	20.8	13111	100
2025-5-24 8:43:5.777	WT901BLE68(801231B9234C)	-1.098	1.284	0.037	-19.165	77.515	138.367	103.19	-20.29	-0.27	38.710	-42.140	-16.856	-0.60382	-0.79370	0.05002	-0.05316	20.8	13111	100
2025-5-24 8:43:5.777	WT901BLE68(801231B9234C)	-0.766	1.117	0.014	-13.672	42.114	91.797	102.83	-22.06	-0.40	38.710	-42.140	-16.856	-0.60382	-0.79370	0.05002	-0.05316	20.8	13111	100
2025-5-24 8:43:5.778	WT901BLE68(801231B9234C)	-0.640	1.023	0.093	-3.662	14.160	50.293	102.86	-22.81	-1.03	38.710	-42.140	-16.856	-0.60382	-0.79370	0.05002	-0.05316	20.8	13111	100
2025-5-24 8:43:5.778	WT901BLE68(801231B9234C)	-0.726	1.040	0.129	-0.977	24.475	8.423	102.95	-22.71	-1.53	38.710	-42.140	-16.856	-0.60382	-0.79370	0.05002	-0.05316	20.8	13111	100
2025-5-24 8:43:5.779	WT901BLE68(801231B9234C)	-0.774	1.081	0.152	3.540	47.363	-29.785	102.84	-21.93	-1.38	38.710	-42.140	-16.856	-0.60382	-0.79370	0.05002	-0.05316	20.8	13111	100
2025-5-24 8:43:5.779	WT901BLE68(801231B9234C)	-0.770	1.106	0.149	10.193	66.406	-54.199	102.66	-20.68	-0.69	38.710	-42.140	-16.856	-0.60382	-0.79370	0.05002	-0.05316	20.8	13111	100
2025-5-24 8:43:5.780	WT901BLE68(801231B9234C)	-0.708	1.225	0.120	21.667	74.890	-79.895	102.55	-19.03	0.39	38.710	-42.140	-16.856	-0.60382	-0.79370	0.05002	-0.05316	20.8	13111	100
2025-5-24 8:43:5.780	WT901BLE68(801231B9234C)	-0.576	1.383	0.106	23.376	62.195	-95.032	102.63	-16.97	1.48	38.710	-42.140	-16.856	-0.60382	-0.79370	0.05002	-0.05316	20.8	13111	100
2025-5-24 8:43:5.780	WT901BLE68(801231B9234C)	-0.477	1.373	0.104	24.963	31.433	-108.887	102.86	-14.60	2.09	38.710	-42.140	-16.856	-0.60382	-0.79370	0.05002	-0.05316	20.8	13111	100
2025-5-24 8:43:5.781	WT901BLE68(801231B9234C)	-0.397	1.477	0.122	28.442	4.150	-129.639	103.32	-11.77	2.21	38.710	-42.140	-16.856	-0.60382	-0.79370	0.05002	-0.05316	20.8	13111	100
2025-5-24 8:43:5.805	WT901BLE68(801231B9234C)	-0.320	1.487	0.087	29.602	-18.921	-148.132	103.87	-8.49	1.97	38.710	-42.140	-16.856	-0.60382	-0.79370	0.05002	-0.05316	20.8	13111	100
2025-5-24 8:43:5.806	WT901BLE68(801231B9234C)	-0.306	1.467	0.066	34.607	-30.212	-165.161	104.50	-4.85	1.57	-4.018	-53.998	-16.562	-0.60382	-0.79370	0.05002	-0.05316	20.8	13111	100
2025-5-24 8:43:5.836	WT901BLE68(801231B9234C)	-0.339	1.461	0.073	37.842	-41.565	-176.147	105.18	-0.95	1.12	-4.018	-53.998	-16.562	-0.60382	-0.79370	0.05002	-0.05316	20.8	13111	100
2025-5-24 8:43:5.836	WT901BLE68(801231B9234C)	-0.324	1.476	0.065	40.405	-62.866	-178.589	105.88	3.09	0.43	-4.018	-53.998	-16.562	-0.60382	-0.79370	0.05002	-0.05316	20.8	13111	100
2025-5-24 8:43:5.894	WT901BLE68(801231B9234C)	-0.292	1.464	0.041	40.222	-88.501	-173.706	106.51	7.16	-0.64	-4.018	-53.998	-16.562	-0.60382	-0.79370	0.05002	-0.05316	20.8	13111	100
2025-5-24 8:43:5.894	WT901BLE68(801231B9234C)	-0.254	1.352	0.072	35.706	-109.558	-167.236	106.92	11.20	-2.10	-4.018	-53.998	-16.562	-0.60382	-0.79370	0.05002	-0.05316	20.8	13111	100
2025-5-24 8:43:5.926	WT901BLE68(801231B9234C)	-0.208	1.208	0.119	30.823	-125.305	-160.767	107.08	15.15	-3.88	-4.018	-53.998	-16.562	-0.58191	-0.80252	-0.04782	0.12225	20.8	13111	100
2025-5-24 8:43:5.926	WT901BLE68(801231B9234C)	-0.167	1.019	0.161	21.179	-136.841	-156.738	106.85	19.01	-5.88	-4.018	-53.998	-16.562	-0.58191	-0.80252	-0.04782	0.12225	20.8	13111	100
2025-5-24 8:43:5.956	WT901BLE68(801231B9234C)	-0.130	0.846	0.176	12.817	-137.878	-154.297	106.27	22.76	-7.96	-4.018	-53.998	-16.562	-0.58191	-0.80252	-0.04782	0.12225	20.8	13111	100
2025-5-24 8:43:5.957	WT901BLE68(801231B9234C)	-0.121	0.700	0.178	4.272	-131.897	-151.672	105.37	26.35	-9.89	-4.018	-53.998	-16.562	-0.58191	-0.80252	-0.04782	0.12225	20.8	13111	100
2025-5-24 8:43:6.15	WT901BLE68(801231B9234C)	-0.110	0.599	0.180	-0.610	-120.667	-149.292	104.31	29.71	-11.51	-4.018	-53.998	-16.562	-0.58191	-0.80252	-0.04782	0.12225	20.8	13111	100
2025-5-24 8:43:6.15	WT901BLE68(801231B9234C)	-0.100	0.558	0.178	-3.906	-107.544	-147.095	103.21	32.85	-12.75	-4.018	-53.998	-16.562	-0.58191	-0.80252	-0.04782	0.12225	20.8	13111	100
2025-5-24 8:43:6.43	WT901BLE68(801231B9234C)	-0.104	0.554	0.173	-7.996	-96.313	-145.935	102.10	35.83	-13.65	-4.018	-53.998	-16.562	-0.58191	-0.80252	-0.04782	0.12225	20.8	13111	100
2025-5-24 8:43:6.44	WT901BLE68(801231B9234C)	-0.122	0.593	0.156	-10.803	-87.708	-143.921	100.98	38.68	-14.31	-4.018	-53.998	-16.562	-0.58191	-0.80252	-0.04782	0.12225	20.8	13111	100
2025-5-24 8:43:6.76	WT901BLE68(801231B9234C)	-0.130	0.640	0.114	-14.038	-81.299	-139.404	99.82	41.37	-14.85	-4.018	-53.998	-16.562	-0.58191	-0.80252	-0.04782	0.12225	20.8	13111	100
2025-5-24 8:43:6.76	WT901BLE68(801231B9234C)	-0.127	0.670	0.080	-14.587	-76.233	-131.165	98.61	43.88	-15.39	-4.018	-53.998	-16.562	-0.58191	-0.80252	-0.04782	0.12225	20.8	13111	100
2025-5-24 8:43:6.134	WT901BLE68(801231B9234C)	-0.146	0.741	0.063	-10.986	-70.679	-118.164	97.42	46.12	-15.95	24.794	-46.648	-16.660	-0.58191	-0.80252	-0.04782	0.12225	20.8	13111	100
2025-5-24 8:43:6.135	WT901BLE68(801231B9234C)	-0.139	0.823	0.062	-13.794	-66.406	-95.459	96.26	47.97	-16.53	24.794	-46.648	-16.660	-0.58191	-0.80252	-0.04782	0.12225	20.8	13111	100
2025-5-24 8:43:6.165	WT901BLE68(801231B9234C)	-0.099	1.068	0.072	-10.559	-60.120	-71.960	95.08	49.32	-17.16	24.794	-46.648	-16.660	-0.58191	-0.80252	-0.04782	0.12225	20.8	13111	100
2025-5-24 8:43:6.165	WT901BLE68(801231B9234C)	-0.057	1.151	0.109	-9.155	-47.241	-47.546	94.06	50.09	-17.56	24.794	-46.648	-16.660	-0.58191	-0.80252	-0.04782	0.12225	20.8	13111	100
2025-5-24 8:43:6.224	WT901BLE68(801231B9234C)	-0.089	1.115	0.167	-5.615	-32.593	-29.846	93.38	50.43	-17.59	24.794	-46.648	-16.660	-0.58191	-0.80252	-0.04782	0.12225	20.8	13111	100
2025-5-24 8:43:6.224	WT901BLE68(801231B9234C)	-0.089	1.234	0.197	3.052	-19.043	-3.845	93.18	50.29	-17.18	24.794	-46.648	-16.660	-0.58191	-0.80252	-0.04782	0.12225	20.8	13111	100
2025-5-24 8:43:6.254	WT901BLE68(801231B9234C)	-0.071	1.306	0.165	13.550	-9.216	31.982	93.36	49.48	-16.53	24.794	-46.648	-16.660	-0.58191	-0.80252	-0.04782	0.12225	20.8	13111	100
2025-5-24 8:43:6.254	WT901BLE68(801231B9234C)	-0.117	1.120	0.130	29.724	6.104	69.519	94.02	47.92	-15.62	24.794	-46.648	-16.660	-0.58191	-0.80252	-0.04782	0.12225	20.8	13111	100
2025-5-24 8:43:6.287	WT901BLE68(801231B9234C)	-0.144	0.973	0.135	47.424	18.005	112.610	95.21	45.53	-14.44	24.794	-46.648	-16.660	-0.58191	-0.80252	-0.04782	0.12225	20.8	13111	100
2025-5-24 8:43:6.287	WT901BLE68(801231B9234C)	-0.167	0.924	0.188	72.815	25.879	161.377	96.79	42.17	-13.31	24.794	-46.648	-16.660	-0.58191	-0.80252	-0.04782	0.12225	20.8	13111	100
2025-5-24 8:43:6.350	WT901BLE68(801231B9234C)	-0.193	1.051	0.249	91.431	28.015	199.951	98.61	37.99	-12.40	24.794	-46.648	-16.660	-0.58475	-0.75107	-0.10889	0.28638	20.8	13111	100
2025-5-24 8:43:6.350	WT901BLE68(801231B9234C)	-0.239	1.269	0.284	101.746	29.602	227.051	100.48	33.21	-11.78	24.794	-46.648	-16.660	-0.58475	-0.75107	-0.10889	0.28638	20.8	13111	100
2025-5-24 8:43:6.375	WT901BLE68(801231B9234C)	-0.184	1.471	0.296	93.994	23.315	244.263	102.14	28.07	-11.48	24.794	-46.648	-16.660	-0.58475	-0.75107	-0.10889	0.28638	20.8	13111	100
2025-5-24 8:43:6.375	WT901BLE68(801231B9234C)	-0.067	1.484	0.246	78.552	11.719	252.686	103.29	22.82	-11.61	24.794	-46.648	-16.660	-0.58475	-0.75107	-0.10889	0.28638	20.8	13111	100
2025-5-24 8:43:6.405	WT901BLE68(801231B9234C)	-0.083	1.481	0.107	75.012	18.188	254.761	104.31	17.54	-11.86	24.794	-46.648	-16.660	-0.58475	-0.75107	-0.10889	0.28638	20.8	13111	100
2025-5-24 8:43:6.405	WT901BLE68(801231B9234C)	-0.164	1.400	0.033	67.688	36.255	250.427	105.34	12.28	-11.92	24.794	-46.648	-16.660	-0.58475	-0.75107	-0.10889	0.28638	20.8	13111	100
2025-5-24 8:43:6.523	WT901BLE68(801231B9234C)	-0.198	1.240	0.063	61.890	49.927	241.394	106.29	7.17	-11.82	24.794	-46.648	-16.660	-0.58475	-0.75107	-0.10889	0.28638	20.8	13111	100
2025-5-24 8:43:6.524	WT901BLE68(801231B9234C)	-0.248	1.081	0.132	56.458	61.646	227.966	107.16	2.33	-11.74	24.794	-46.648	-16.660	-0.58475	-0.75107	-0.10889	0.28638	20.8	13111	100
2025-5-24 8:43:6.525	WT901BLE68(801231B9234C)	-0.294	0.948	0.170	49.744	70.190	207.275	107.92	-2.05	-11.90	24.794	-46.648	-16.660	-0.58475	-0.75107	-0.10889	0.28638	20.8	13111	100
2025-5-24 8:43:6.525	WT901BLE68(801231B9234C)	-0.293	0.851	0.161	44.067	71.899	185.913	108.62	-5.92	-12.33	24.794	-46.648	-16.660	-0.58475	-0.75107	-0.10889	0.28638	20.8	13111	100
2025-5-24 8:43:6.525	WT901BLE68(801231B9234C)	-0.278	0.782	0.130	40.955	73.303	161.255	109.26	-9.27	-12.77	24.794	-46.648	-16.660	-0.58475	-0.75107	-0.10889	0.28638	20.8	13111	100
2025-5-24 8:43:6.526	WT901BLE68(801231B9234C)	-0.295	0.766	0.107	39.917	76.538	135.742	109.86	-12.11	-13.07	24.794	-46.648	-16.660	-0.58475	-0.75107	-0.10889	0.28638	20.8	13111	100
2025-5-24 8:43:6.885	WT901BLE68(801231B9234C)	-0.326	0.836	0.104	40.466	79.346	112.610	110.42	-14.47	-13.19	-10.682	-49.392	-7.938	-0.58475	-0.75107	-0.10889	0.28638	20.8	13111	100
2025-5-24 8:43:6.885	WT901BLE68(801231B9234C)	-0.346	0.952	0.154	34.851	79.346	94.055	110.88	-16.43	-13.17	-10.682	-49.392	-7.938	-0.58475	-0.75107	-0.10889	0.28638	20.8	13111	100
2025-5-24 8:43:6.886	WT901BLE68(801231B9234C)	-0.371	1.028	0.186	26.550	81.482	85.083	111.15	-18.14	-13.05	-10.682	-49.392	-7.938	-0.58475	-0.75107	-0.10889	0.28638	20.8	13111	100
2025-5-24 8:43:6.886	WT901BLE68(801231B9234C)	-0.421	1.048	0.242	16.968	88.928	81.055	111.17	-19.76	-12.79	-10.682	-49.392	-7.938	-0.58475	-0.75107	-0.10889	0.28638	20.8	13111	100
2025-5-24 8:43:6.887	WT901BLE68(801231B9234C)	-0.448	1.094	0.266	10.803	94.177	78.857	110.97	-21.36	-12.36	-10.682	-49.392	-7.938	-0.58475	-0.75107	-0.10889	0.28638	20.8	13111	100
2025-5-24 8:43:6.887	WT901BLE68(801231B9234C)	-0.477	1.105	0.264	3.479	95.825	75.134	110.59	-22.90	-11.86	-10.682	-49.392	-7.938	-0.58475	-0.75107	-0.10889	0.28638	20.8	13111	100
2025-5-24 8:43:6.887	WT901BLE68(801231B9234C)	-0.490	1.125	0.243	3.845	98.572	59.082	110.07	-24.22	-11.20	-10.682	-49.392	-7.938	-0.58475	-0.75107	-0.10889	0.28638	20.8	13111	100
2025-5-24 8:43:6.888	WT901BLE68(801231B9234C)	-0.483	1.206	0.234	6.348	101.440	31.433	109.46	-25.09	-10.25	-10.682	-49.392	-7.938	-0.58475	-0.75107	-0.10889	0.28638	20.8	13111	100
2025-5-24 8:43:6.889	WT901BLE68(801231B9234C)	-0.509	1.190	0.242	5.859	100.647	-2.075	108.74	-25.35	-9.02	-10.682	-49.392	-7.938	-0.58475	-0.75107	-0.10889	0.28638	20.8	13111	100
2025-5-24 8:43:6.889	WT901BLE68(801231B9234C)	-0.567	1.214	0.266	10.437	82.642	-36.499	108.06	-24.85	-7.76	-10.682	-49.392	-7.938	-0.58475	-0.75107	-0.10889	0.28638	20.8	13111	100
2025-5-24 8:43:6.889	WT901BLE68(801231B9234C)	-0.662	1.329	0.261	7.446	47.729	-61.890	107.62	-23.61	-6.92	-10.682	-49.392	-7.938	-0.58475	-0.75107	-0.10889	0.28638	20.8	13111	100
2025-5-24 8:43:6.890	WT901BLE68(801231B9234C)	-0.594	1.288	0.251	2.686	0.183	-81.360	107.38	-21.71	-6.83	-10.682	-49.392	-7.938	-0.58475	-0.75107	-0.10889	0.28638	20.8	13111	100
2025-5-24 8:43:6.890	WT901BLE68(801231B9234C)	-0.369	1.367	0.199	3.906	-47.241	-101.257	107.50	-19.14	-7.62	-10.682	-49.392	-7.938	-0.58475	-0.75107	-0.10889	0.28638	20.8	13111	100
2025-5-24 8:43:6.891	WT901BLE68(801231B9234C)	-0.182	1.516	0.104	-0.488	-72.266	-130.676	107.69	-15.91	-8.89	-10.682	-49.392	-7.938	-0.58475	-0.75107	-0.10889	0.28638	20.8	13111	100
2025-5-24 8:43:6.891	WT901BLE68(801231B9234C)	-0.117	1.628	0.080	-9.827	-69.092	-166.809	107.64	-12.04	-10.04	-10.682	-49.392	-7.938	-0.58475	-0.75107	-0.10889	0.28638	20.8	13111	100
2025-5-24 8:43:6.891	WT901BLE68(801231B9234C)	-0.159	1.601	0.084	-15.015	-50.354	-199.829	107.27	-7.68	-10.66	-10.682	-49.392	-7.938	-0.58475	-0.75107	-0.10889	0.28638	20.8	13111	100
2025-5-24 8:43:6.915	WT901BLE68(801231B9234C)	-0.248	1.520	0.051	-9.338	-40.771	-226.074	106.85	-2.94	-10.82	-10.682	-49.392	-7.938	-0.58475	-0.75107	-0.10889	0.28638	20.8	13111	100
2025-5-24 8:43:6.916	WT901BLE68(801231B9234C)	-0.291	1.541	0.028	2.197	-47.302	-238.892	106.64	2.08	-10.90	-10.682	-49.392	-7.938	-0.58475	-0.75107	-0.10889	0.28638	20.8	13111	100
2025-5-24 8:43:6.946	WT901BLE68(801231B9234C)	-0.262	1.588	0.099	2.014	-69.763	-242.310	106.53	7.24	-11.23	-4.312	-47.824	-11.662	-0.58475	-0.75107	-0.10889	0.28638	20.8	13111	100
2025-5-24 8:43:6.947	WT901BLE68(801231B9234C)	-0.127	1.563	0.104	-5.615	-98.511	-241.699	106.23	12.51	-12.08	-4.312	-47.824	-11.662	-0.58475	-0.75107	-0.10889	0.28638	20.8	13111	100
2025-5-24 8:43:6.976	WT901BLE68(801231B9234C)	-0.036	1.319	0.052	-18.921	-109.009	-244.019	105.51	17.81	-13.29	-4.312	-47.824	-11.662	-0.58475	-0.75107	-0.10889	0.28638	20.8	13111	100
2025-5-24 8:43:6.977	WT901BLE68(801231B9234C)	-0.084	1.077	0.018	-21.545	-94.910	-251.648	104.59	23.08	-14.32	-4.312	-47.824	-11.662	-0.58475	-0.75107	-0.10889	0.28638	20.8	13111	100
2025-5-24 8:43:7.5	WT901BLE68(801231B9234C)	-0.127	0.944	0.020	-18.494	-81.970	-257.874	103.79	28.29	-14.85	-4.312	-47.824	-11.662	-0.58475	-0.75107	-0.10889	0.28638	20.8	13111	100
2025-5-24 8:43:7.5	WT901BLE68(801231B9234C)	-0.104	0.854	0.048	-17.029	-86.792	-257.751	103.03	33.43	-15.16	-4.312	-47.824	-11.662	-0.58475	-0.75107	-0.10889	0.28638	20.8	13111	100
2025-5-24 8:43:7.63	WT901BLE68(801231B9234C)	-0.083	0.837	0.057	-17.944	-96.130	-252.441	102.11	38.45	-15.57	-4.312	-47.824	-11.662	-0.58475	-0.75107	-0.10889	0.28638	20.8	13111	100
2025-5-24 8:43:7.64	WT901BLE68(801231B9234C)	-0.053	0.903	0.018	-22.949	-97.534	-240.906	100.96	43.25	-16.12	-4.312	-47.824	-11.662	-0.58475	-0.75107	-0.10889	0.28638	20.8	13111	100
2025-5-24 8:43:7.96	WT901BLE68(801231B9234C)	-0.022	0.903	-0.008	-35.034	-89.844	-221.558	99.51	47.65	-16.70	-4.312	-47.824	-11.662	-0.58475	-0.75107	-0.10889	0.28638	20.8	13111	100
2025-5-24 8:43:7.96	WT901BLE68(801231B9234C)	-0.012	0.789	-0.000	-43.884	-75.867	-200.867	97.86	51.55	-17.20	-4.312	-47.824	-11.662	-0.58475	-0.75107	-0.10889	0.28638	20.8	13111	100
2025-5-24 8:43:7.126	WT901BLE68(801231B9234C)	-0.028	0.723	0.023	-43.213	-56.458	-176.941	96.34	54.90	-17.41	-4.312	-47.824	-11.662	-0.58475	-0.75107	-0.10889	0.28638	20.8	13111	100
2025-5-24 8:43:7.126	WT901BLE68(801231B9234C)	-0.064	0.735	0.044	-40.588	-34.851	-149.475	95.27	57.65	-17.13	-4.312	-47.824	-11.662	-0.52948	-0.69220	-0.21970	0.43832	20.8	13111	100
2025-5-24 8:43:7.183	WT901BLE68(801231B9234C)	-0.086	0.756	0.063	-38.391	-13.672	-121.826	94.78	59.78	-16.19	-4.312	-47.824	-11.662	-0.52948	-0.69220	-0.21970	0.43832	20.8	13111	100
2025-5-24 8:43:7.184	WT901BLE68(801231B9234C)	-0.146	0.720	0.092	-37.476	8.118	-94.849	95.03	61.31	-14.48	-4.312	-47.824	-11.662	-0.52948	-0.69220	-0.21970	0.43832	20.8	13111	100
2025-5-24 8:43:7.213	WT901BLE68(801231B9234C)	-0.205	0.771	0.101	-27.832	25.940	-65.308	96.06	62.22	-12.01	-4.312	-47.824	-11.662	-0.52948	-0.69220	-0.21970	0.43832	20.8	13111	100
2025-5-24 8:43:7.213	WT901BLE68(801231B9234C)	-0.274	0.800	0.139	-19.653	38.269	-30.090	97.64	62.41	-9.09	-4.312	-47.824	-11.662	-0.52948	-0.69220	-0.21970	0.43832	20.8	13111	100
2025-5-24 8:43:7.243	WT901BLE68(801231B9234C)	-0.294	0.911	0.130	-8.179	42.480	18.677	99.35	61.72	-6.22	-4.312	-47.824	-11.662	-0.52948	-0.69220	-0.21970	0.43832	20.8	13111	100
2025-5-24 8:43:7.243	WT901BLE68(801231B9234C)	-0.312	0.985	0.099	1.770	46.936	75.439	100.85	59.92	-3.78	-4.312	-47.824	-11.662	-0.52948	-0.69220	-0.21970	0.43832	20.8	13111	100
2025-5-24 8:43:7.304	WT901BLE68(801231B9234C)	-0.348	0.930	0.111	13.794	54.321	125.366	102.18	57.06	-1.78	-4.312	-47.824	-11.662	-0.52948	-0.69220	-0.21970	0.43832	20.8	13111	100
2025-5-24 8:43:7.304	WT901BLE68(801231B9234C)	-0.373	0.872	0.172	32.593	68.481	167.603	103.53	53.26	-0.06	-4.312	-47.824	-11.662	-0.52948	-0.69220	-0.21970	0.43832	20.8	13111	100
2025-5-24 8:43:7.334	WT901BLE68(801231B9234C)	-0.429	0.934	0.269	46.021	78.918	193.970	105.00	48.84	1.51	-4.312	-47.824	-11.662	-0.52948	-0.69220	-0.21970	0.43832	20.8	13111	100
2025-5-24 8:43:7.334	WT901BLE68(801231B9234C)	-0.438	1.121	0.311	52.246	74.097	212.463	106.29	44.03	2.72	29.792	-34.888	-15.582	-0.52948	-0.69220	-0.21970	0.43832	20.8	13111	100
2025-5-24 8:43:7.363	WT901BLE68(801231B9234C)	-0.391	1.309	0.253	50.781	53.528	229.675	107.06	39.01	3.23	29.792	-34.888	-15.582	-0.52948	-0.69220	-0.21970	0.43832	20.8	13111	100
2025-5-24 8:43:7.363	WT901BLE68(801231B9234C)	-0.339	1.415	0.203	45.227	33.203	239.563	107.31	33.93	3.07	29.792	-34.888	-15.582	-0.52948	-0.69220	-0.21970	0.43832	20.8	13111	100
2025-5-24 8:43:7.424	WT901BLE68(801231B9234C)	-0.331	1.495	0.198	42.419	31.006	244.873	107.43	28.82	2.68	29.792	-34.888	-15.582	-0.52948	-0.69220	-0.21970	0.43832	20.8	13111	100
2025-5-24 8:43:7.425	WT901BLE68(801231B9234C)	-0.328	1.490	0.233	37.109	37.659	247.559	107.57	23.66	2.39	29.792	-34.888	-15.582	-0.52948	-0.69220	-0.21970	0.43832	20.8	13111	100
2025-5-24 8:43:7.814	WT901BLE68(801231B9234C)	-0.263	1.298	0.261	26.855	45.715	244.446	107.66	18.52	2.27	29.792	-34.888	-15.582	-0.52948	-0.69220	-0.21970	0.43832	20.8	13111	100
2025-5-24 8:43:7.814	WT901BLE68(801231B9234C)	-0.253	1.101	0.243	21.118	62.195	236.328	107.70	13.46	2.44	29.792	-34.888	-15.582	-0.52948	-0.69220	-0.21970	0.43832	20.8	13111	100
2025-5-24 8:43:7.815	WT901BLE68(801231B9234C)	-0.325	0.972	0.224	11.902	88.928	220.703	107.69	8.56	3.10	29.792	-34.888	-15.582	-0.52948	-0.69220	-0.21970	0.43832	20.8	13111	100
2025-5-24 8:43:7.815	WT901BLE68(801231B9234C)	-0.362	0.938	0.199	4.150	106.812	204.529	107.56	4.03	3.81	29.792	-34.888	-15.582	-0.52948	-0.69220	-0.21970	0.43832	20.8	13111	100
2025-5-24 8:43:7.843	WT901BLE68(801231B9234C)	-0.367	0.977	0.184	-4.761	108.948	191.650	107.38	-0.04	3.94	29.792	-34.888	-15.582	-0.52948	-0.69220	-0.21970	0.43832	20.8	13111	100
2025-5-24 8:43:7.844	WT901BLE68(801231B9234C)	-0.387	1.046	0.158	-15.137	104.004	182.129	107.02	-3.83	3.97	29.792	-34.888	-15.582	-0.52948	-0.69220	-0.21970	0.43832	20.8	13111	100
2025-5-24 8:43:7.845	WT901BLE68(801231B9234C)	-0.395	0.963	0.169	-30.029	101.379	171.631	106.38	-7.38	4.01	29.792	-34.888	-15.582	-0.52948	-0.69220	-0.21970	0.43832	20.8	13111	100
2025-5-24 8:43:7.845	WT901BLE68(801231B9234C)	-0.429	0.788	0.209	-35.156	105.713	159.180	105.50	-10.66	4.19	29.792	-34.888	-15.582	-0.52948	-0.69220	-0.21970	0.43832	20.8	13111	100
2025-5-24 8:43:7.845	WT901BLE68(801231B9234C)	-0.493	0.745	0.237	-33.264	115.173	141.113	104.56	-13.62	4.67	29.792	-34.888	-15.582	-0.52948	-0.69220	-0.21970	0.43832	20.8	13111	100
2025-5-24 8:43:7.846	WT901BLE68(801231B9234C)	-0.580	0.805	0.229	-32.837	117.249	123.596	103.53	-16.21	5.43	29.792	-34.888	-15.582	-0.52948	-0.69220	-0.21970	0.43832	20.8	13111	100
2025-5-24 8:43:7.847	WT901BLE68(801231B9234C)	-0.711	0.966	0.180	-32.349	105.408	110.657	102.48	-18.42	6.20	29.792	-34.888	-15.582	-0.52948	-0.69220	-0.21970	0.43832	20.8	13111	100
2025-5-24 8:43:7.847	WT901BLE68(801231B9234C)	-0.849	1.050	0.085	-36.743	71.289	101.807	101.50	-20.28	6.58	29.792	-34.888	-15.582	-0.52948	-0.69220	-0.21970	0.43832	20.8	13111	100
2025-5-24 8:43:7.847	WT901BLE68(801231B9234C)	-0.893	1.095	0.011	-29.114	16.357	92.285	100.89	-21.73	6.06	29.792	-34.888	-15.582	-0.52948	-0.69220	-0.21970	0.43832	20.8	13111	100
2025-5-24 8:43:7.847	WT901BLE68(801231B9234C)	-0.746	1.346	0.009	-13.428	-42.236	74.951	101.05	-22.65	4.40	29.792	-34.888	-15.582	-0.52948	-0.69220	-0.21970	0.43832	20.8	13111	100
2025-5-24 8:43:7.848	WT901BLE68(801231B9234C)	-0.484	1.349	0.008	-10.254	-77.332	51.941	101.73	-22.96	1.89	29.792	-34.888	-15.582	-0.52948	-0.69220	-0.21970	0.43832	20.8	13111	100
2025-5-24 8:43:7.848	WT901BLE68(801231B9234C)	-0.335	1.271	0.043	2.014	-72.510	9.155	102.54	-22.53	-0.65	29.792	-34.888	-15.582	-0.52948	-0.69220	-0.21970	0.43832	20.8	13111	100
2025-5-24 8:43:7.849	WT901BLE68(801231B9234C)	-0.353	1.571	0.079	10.925	-37.964	-39.307	103.27	-21.25	-2.36	29.792	-34.888	-15.582	-0.52948	-0.69220	-0.21970	0.43832	20.8	13111	100
2025-5-24 8:43:7.849	WT901BLE68(801231B9234C)	-0.433	1.521	0.117	2.014	2.625	-77.515	103.44	-19.42	-2.99	29.792	-34.888	-15.582	-0.52948	-0.69220	-0.21970	0.43832	20.8	13111	100
2025-5-24 8:43:7.849	WT901BLE68(801231B9234C)	-0.348	1.348	0.121	4.272	22.644	-118.347	103.28	-16.99	-2.81	29.792	-34.888	-15.582	-0.52948	-0.69220	-0.21970	0.43832	20.8	13111	100
2025-5-24 8:43:7.850	WT901BLE68(801231B9234C)	-0.284	1.362	0.078	11.047	23.010	-153.625	103.17	-13.90	-2.32	29.792	-34.888	-15.582	-0.52948	-0.69220	-0.21970	0.43832	20.8	13111	100
2025-5-24 8:43:7.850	WT901BLE68(801231B9234C)	-0.319	1.429	0.017	14.832	16.663	-186.157	103.18	-10.17	-1.76	-9.212	-41.356	-14.406	-0.52948	-0.69220	-0.21970	0.43832	20.8	13111	100
2025-5-24 8:43:7.850	WT901BLE68(801231B9234C)	-0.294	1.477	0.009	18.982	-1.404	-212.219	103.34	-5.89	-1.30	-9.212	-41.356	-14.406	-0.52948	-0.69220	-0.21970	0.43832	20.8	13111	100
2025-5-24 8:43:7.906	WT901BLE68(801231B9234C)	-0.249	1.539	0.012	19.348	-32.837	-224.792	103.59	-1.21	-1.24	-9.212	-41.356	-14.406	-0.52948	-0.69220	-0.21970	0.43832	20.8	13111	100
2025-5-24 8:43:7.906	WT901BLE68(801231B9234C)	-0.212	1.622	-0.025	17.578	-62.500	-230.347	103.87	3.67	-1.65	-9.212	-41.356	-14.406	-0.52948	-0.69220	-0.21970	0.43832	20.8	13111	100
2025-5-24 8:43:7.964	WT901BLE68(801231B9234C)	-0.158	1.353	0.042	18.433	-86.975	-234.131	104.06	8.72	-2.50	-9.212	-41.356	-14.406	-0.52948	-0.69220	-0.21970	0.43832	20.8	13111	100
2025-5-24 8:43:7.964	WT901BLE68(801231B9234C)	-0.101	1.196	0.086	21.362	-110.657	-233.276	104.13	13.86	-3.74	-9.212	-41.356	-14.406	-0.60208	-0.78745	-0.04938	0.12201	20.8	13111	100
2025-5-24 8:43:7.994	WT901BLE68(801231B9234C)	-0.056	1.057	0.080	21.240	-121.338	-232.300	104.05	18.95	-5.23	-9.212	-41.356	-14.406	-0.60208	-0.78745	-0.04938	0.12201	20.8	13111	100
2025-5-24 8:43:7.994	WT901BLE68(801231B9234C)	-0.033	0.876	0.069	16.602	-125.427	-230.652	103.72	23.96	-6.78	-9.212	-41.356	-14.406	-0.60208	-0.78745	-0.04938	0.12201	20.8	13111	100
2025-5-24 8:43:8.23	WT901BLE68(801231B9234C)	-0.060	0.705	0.096	15.625	-122.192	-225.037	103.19	28.78	-8.25	-9.212	-41.356	-14.406	-0.60208	-0.78745	-0.04938	0.12201	20.8	13111	100
2025-5-24 8:43:8.23	WT901BLE68(801231B9234C)	-0.086	0.675	0.196	16.357	-121.887	-216.064	102.57	33.33	-9.62	-9.212	-41.356	-14.406	-0.60208	-0.78745	-0.04938	0.12201	20.8	13111	100
2025-5-24 8:43:8.54	WT901BLE68(801231B9234C)	-0.034	0.784	0.179	13.977	-131.897	-194.763	101.62	37.52	-11.18	-9.212	-41.356	-14.406	-0.60208	-0.78745	-0.04938	0.12201	20.8	13111	100
2025-5-24 8:43:8.54	WT901BLE68(801231B9234C)	0.005	0.740	0.156	0.366	-138.611	-167.908	100.10	41.14	-13.10	-9.212	-41.356	-14.406	-0.60208	-0.78745	-0.04938	0.12201	20.8	13111	100
2025-5-24 8:43:8.114	WT901BLE68(801231B9234C)	0.025	0.585	0.167	-7.324	-128.601	-150.269	98.17	44.24	-15.13	-9.212	-41.356	-14.406	-0.60208	-0.78745	-0.04938	0.12201	20.8	13111	100
2025-5-24 8:43:8.114	WT901BLE68(801231B9234C)	0.036	0.568	0.225	-13.733	-111.511	-129.944	96.17	46.81	-16.94	-9.212	-41.356	-14.406	-0.60208	-0.78745	-0.04938	0.12201	20.8	13111	100
2025-5-24 8:43:8.143	WT901BLE68(801231B9234C)	0.021	0.692	0.237	-15.259	-83.984	-105.408	94.44	48.77	-18.26	-9.212	-41.356	-14.406	-0.60208	-0.78745	-0.04938	0.12201	20.8	13111	100
2025-5-24 8:43:8.143	WT901BLE68(801231B9234C)	0.080	0.828	0.187	-29.175	-60.974	-84.717	92.87	50.22	-18.99	19.208	-38.514	-15.288	-0.60208	-0.78745	-0.04938	0.12201	20.8	13111	100
2025-5-24 8:43:8.176	WT901BLE68(801231B9234C)	0.050	0.846	0.132	-35.950	-27.649	-62.073	91.69	51.17	-18.94	19.208	-38.514	-15.288	-0.60208	-0.78745	-0.04938	0.12201	20.8	13111	100
2025-5-24 8:43:8.176	WT901BLE68(801231B9234C)	-0.064	0.915	0.134	-34.058	11.475	-36.255	91.41	51.59	-17.74	19.208	-38.514	-15.288	-0.60208	-0.78745	-0.04938	0.12201	20.8	13111	100
2025-5-24 8:43:8.234	WT901BLE68(801231B9234C)	-0.142	1.040	0.130	-29.663	34.607	1.221	91.92	51.32	-15.64	19.208	-38.514	-15.288	-0.60208	-0.78745	-0.04938	0.12201	20.8	13111	100
2025-5-24 8:43:8.234	WT901BLE68(801231B9234C)	-0.159	1.037	0.163	-23.010	39.368	46.997	92.69	50.15	-13.37	19.208	-38.514	-15.288	-0.60208	-0.78745	-0.04938	0.12201	20.8	13111	100
2025-5-24 8:43:8.323	WT901BLE68(801231B9234C)	-0.112	1.104	0.171	-12.268	36.621	94.055	93.40	48.08	-11.33	19.208	-38.514	-15.288	-0.60208	-0.78745	-0.04938	0.12201	20.8	13111	100
2025-5-24 8:43:8.324	WT901BLE68(801231B9234C)	-0.152	1.197	0.115	2.747	44.922	148.743	94.21	44.97	-9.51	19.208	-38.514	-15.288	-0.60208	-0.78745	-0.04938	0.12201	20.8	13111	100
2025-5-24 8:43:8.325	WT901BLE68(801231B9234C)	-0.212	1.164	0.092	19.287	64.758	186.584	95.35	40.97	-7.55	19.208	-38.514	-15.288	-0.60208	-0.78745	-0.04938	0.12201	20.8	13111	100
2025-5-24 8:43:8.325	WT901BLE68(801231B9234C)	-0.232	1.158	0.123	42.053	88.806	219.788	96.97	36.25	-5.37	19.208	-38.514	-15.288	-0.60208	-0.78745	-0.04938	0.12201	20.8	13111	100
2025-5-24 8:43:8.356	WT901BLE68(801231B9234C)	-0.316	1.200	0.225	62.073	96.497	245.422	98.83	30.94	-3.27	19.208	-38.514	-15.288	-0.60208	-0.78745	-0.04938	0.12201	20.8	13111	100
2025-5-24 8:43:8.356	WT901BLE68(801231B9234C)	-0.438	1.415	0.319	75.378	79.712	262.268	100.60	25.29	-1.72	19.208	-38.514	-15.288	-0.60208	-0.78745	-0.04938	0.12201	20.8	13111	100
2025-5-24 8:43:8.385	WT901BLE68(801231B9234C)	-0.418	1.627	0.312	59.021	29.602	274.353	101.71	19.55	-1.29	19.208	-38.514	-15.288	-0.61777	-0.77121	-0.08627	0.12674	20.8	13111	100
2025-5-24 8:43:8.385	WT901BLE68(801231B9234C)	-0.286	1.643	0.240	50.110	-28.442	278.687	102.13	14.02	-2.25	19.208	-38.514	-15.288	-0.61777	-0.77121	-0.08627	0.12674	20.8	13111	100
2025-5-24 8:43:8.415	WT901BLE68(801231B9234C)	-0.188	1.570	0.126	48.706	-64.636	271.301	102.44	8.84	-4.25	19.208	-38.514	-15.288	-0.61777	-0.77121	-0.08627	0.12674	20.8	13111	100
2025-5-24 8:43:8.416	WT901BLE68(801231B9234C)	-0.134	1.414	0.097	48.828	-69.580	251.343	102.89	4.15	-6.72	19.208	-38.514	-15.288	-0.61777	-0.77121	-0.08627	0.12674	20.8	13111	100
2025-5-24 8:43:8.505	WT901BLE68(801231B9234C)	-0.159	1.246	0.161	46.997	-49.927	225.159	103.56	-0.01	-9.11	19.208	-38.514	-15.288	-0.61777	-0.77121	-0.08627	0.12674	20.8	13111	100
2025-5-24 8:43:8.505	WT901BLE68(801231B9234C)	-0.212	1.006	0.310	35.034	-20.813	193.848	104.21	-3.61	-11.10	19.208	-38.514	-15.288	-0.61777	-0.77121	-0.08627	0.12674	20.8	13111	100
2025-5-24 8:43:9.43	WT901BLE68(801231B9234C)	-0.184	0.751	0.328	26.123	2.502	165.649	104.70	-6.69	-12.66	19.208	-38.514	-15.288	-0.61777	-0.77121	-0.08627	0.12674	20.8	13111	100
2025-5-24 8:43:9.43	WT901BLE68(801231B9234C)	-0.162	0.581	0.260	23.376	25.879	140.808	105.08	-9.31	-13.79	19.208	-38.514	-15.288	-0.61777	-0.77121	-0.08627	0.12674	20.8	13111	100
2025-5-24 8:43:9.164	WT901BLE68(801231B9234C)	-0.233	0.547	0.253	22.644	54.810	112.427	105.38	-11.52	-14.35	19.208	-38.514	-15.288	-0.61777	-0.77121	-0.08627	0.12674	20.8	13111	100
2025-5-24 8:43:9.165	WT901BLE68(801231B9234C)	-0.337	0.621	0.286	19.287	78.430	88.440	105.49	-13.33	-14.25	-10.388	-39.298	-10.388	-0.61777	-0.77121	-0.08627	0.12674	20.8	13111	100
2025-5-24 8:43:9.165	WT901BLE68(801231B9234C)	-0.398	0.790	0.308	12.695	83.374	72.815	105.40	-14.81	-13.83	-10.388	-39.298	-10.388	-0.61777	-0.77121	-0.08627	0.12674	20.8	13111	100
2025-5-24 8:43:9.165	WT901BLE68(801231B9234C)	-0.390	0.929	0.301	0.427	78.491	66.895	105.09	-16.05	-13.40	-10.388	-39.298	-10.388	-0.61777	-0.77121	-0.08627	0.12674	20.8	13111	100
2025-5-24 8:43:9.166	WT901BLE68(801231B9234C)	-0.370	0.958	0.311	-11.902	76.721	63.599	104.53	-17.18	-13.00	-10.388	-39.298	-10.388	-0.61777	-0.77121	-0.08627	0.12674	20.8	13111	100
2025-5-24 8:43:9.166	WT901BLE68(801231B9234C)	-0.358	0.931	0.322	-17.944	81.299	55.725	103.77	-18.18	-12.49	-10.388	-39.298	-10.388	-0.61777	-0.77121	-0.08627	0.12674	20.8	13111	100
2025-5-24 8:43:9.168	WT901BLE68(801231B9234C)	-0.372	0.945	0.325	-19.836	93.018	40.588	102.84	-18.95	-11.71	-10.388	-39.298	-10.388	-0.61777	-0.77121	-0.08627	0.12674	20.8	13111	100
2025-5-24 8:43:9.168	WT901BLE68(801231B9234C)	-0.400	0.996	0.312	-20.630	106.018	18.616	101.75	-19.37	-10.52	-10.388	-39.298	-10.388	-0.61777	-0.77121	-0.08627	0.12674	20.8	13111	100
2025-5-24 8:43:9.169	WT901BLE68(801231B9234C)	-0.401	1.063	0.292	-17.761	111.023	-7.324	100.59	-19.30	-9.04	-10.388	-39.298	-10.388	-0.61777	-0.77121	-0.08627	0.12674	20.8	13111	100
2025-5-24 8:43:9.169	WT901BLE68(801231B9234C)	-0.396	1.092	0.269	-15.625	106.140	-34.058	99.49	-18.68	-7.45	-10.388	-39.298	-10.388	-0.61777	-0.77121	-0.08627	0.12674	20.8	13111	100
2025-5-24 8:43:9.169	WT901BLE68(801231B9234C)	-0.412	1.087	0.243	-9.277	91.431	-58.655	98.54	-17.51	-6.02	-10.388	-39.298	-10.388	-0.61777	-0.77121	-0.08627	0.12674	20.8	13111	100
2025-5-24 8:43:9.170	WT901BLE68(801231B9234C)	-0.432	1.244	0.193	0.732	66.956	-81.238	97.97	-15.79	-4.95	-10.388	-39.298	-10.388	-0.61777	-0.77121	-0.08627	0.12674	20.8	13111	100
2025-5-24 8:43:9.170	WT901BLE68(801231B9234C)	-0.420	1.394	0.182	0.244	36.499	-95.581	97.66	-13.66	-4.42	-10.388	-39.298	-10.388	-0.61777	-0.77121	-0.08627	0.12674	20.8	13111	100
2025-5-24 8:43:9.170	WT901BLE68(801231B9234C)	-0.344	1.455	0.169	1.282	2.991	-106.079	97.52	-11.24	-4.50	-10.388	-39.298	-10.388	-0.61777	-0.77121	-0.08627	0.12674	20.8	13111	100
2025-5-24 8:43:9.171	WT901BLE68(801231B9234C)	-0.231	1.456	0.154	1.343	-23.560	-117.920	97.51	-8.56	-5.12	-10.388	-39.298	-10.388	-0.61777	-0.77121	-0.08627	0.12674	20.8	13111	100
2025-5-24 8:43:9.171	WT901BLE68(801231B9234C)	-0.187	1.445	0.161	2.197	-30.518	-133.484	97.52	-5.61	-5.95	-10.388	-39.298	-10.388	-0.61777	-0.77121	-0.08627	0.12674	20.8	13111	100
2025-5-24 8:43:9.194	WT901BLE68(801231B9234C)	-0.222	1.444	0.144	4.578	-25.085	-147.461	97.52	-2.41	-6.66	-10.388	-39.298	-10.388	-0.61777	-0.77121	-0.08627	0.12674	20.8	13111	100
2025-5-24 8:43:9.195	WT901BLE68(801231B9234C)	-0.291	1.363	0.126	8.179	-23.987	-155.518	97.54	0.91	-7.22	-10.388	-39.298	-10.388	-0.61777	-0.77121	-0.08627	0.12674	20.8	13111	100
2025-5-24 8:43:9.195	WT901BLE68(801231B9234C)	-0.308	1.303	0.105	19.592	-37.109	-155.579	97.70	4.28	-7.89	-10.388	-39.298	-10.388	-0.61777	-0.77121	-0.08627	0.12674	20.8	13111	100
2025-5-24 8:43:9.196	WT901BLE68(801231B9234C)	-0.325	1.343	0.095	27.283	-60.608	-148.010	98.00	7.56	-8.92	-10.388	-39.298	-10.388	-0.61777	-0.77121	-0.08627	0.12674	20.8	13111	100
2025-5-24 8:43:9.196	WT901BLE68(801231B9234C)	-0.103	1.265	0.135	24.109	-89.478	-142.761	98.18	10.76	-10.47	-10.388	-39.298	-10.388	-0.61777	-0.77121	-0.08627	0.12674	20.8	13111	100
2025-5-24 8:43:9.196	WT901BLE68(801231B9234C)	-0.120	0.754	0.077	-9.644	-87.524	-175.354	92.35	34.27	-26.31	-10.388	-39.298	-10.388	-0.61777	-0.77121	-0.08627	0.12674	20.8	13111	100
2025-5-24 8:43:9.197	WT901BLE68(801231B9234C)	-0.037	0.845	0.117	-15.991	-79.041	-171.204	90.92	37.49	-28.04	-10.388	-39.298	-10.388	-0.58740	-0.71249	-0.04987	0.38043	20.8	13111	100
2025-5-24 8:43:9.198	WT901BLE68(801231B9234C)	-0.034	1.085	0.171	-35.034	-9.338	-96.863	83.92	49.08	-31.87	12.348	-36.162	-15.386	-0.58740	-0.71249	-0.04987	0.38043	20.8	13111	100
2025-5-24 8:43:9.223	WT901BLE68(801231B9234C)	-0.031	1.103	0.168	-31.738	3.357	-72.510	83.48	50.27	-31.07	12.348	-36.162	-15.386	-0.57419	-0.66867	-0.13828	0.45163	20.8	13111	100
2025-5-24 8:43:9.223	WT901BLE68(801231B9234C)	-0.022	1.093	0.151	-22.339	15.869	-43.152	83.53	50.95	-29.77	12.348	-36.162	-15.386	-0.57419	-0.66867	-0.13828	0.45163	20.8	13111	100
2025-5-24 8:43:9.284	WT901BLE68(801231B9234C)	-0.050	1.154	0.117	-5.188	29.236	-3.174	84.34	50.93	-27.91	12.348	-36.162	-15.386	-0.57419	-0.66867	-0.13828	0.45163	20.8	13111	100
2025-5-24 8:43:9.284	WT901BLE68(801231B9234C)	-0.126	1.047	0.126	7.446	40.588	38.635	85.77	50.07	-25.58	12.348	-36.162	-15.386	-0.57419	-0.66867	-0.13828	0.45163	20.8	13111	100
2025-5-24 8:43:9.316	WT901BLE68(801231B9234C)	-0.202	0.923	0.181	28.137	46.936	80.261	87.68	48.37	-23.03	12.348	-36.162	-15.386	-0.57419	-0.66867	-0.13828	0.45163	20.8	13111	100
2025-5-24 8:43:9.316	WT901BLE68(801231B9234C)	-0.196	0.920	0.251	49.133	45.898	122.620	89.85	45.79	-20.62	12.348	-36.162	-15.386	-0.57419	-0.66867	-0.13828	0.45163	20.8	13111	100
2025-5-24 8:43:9.346	WT901BLE68(801231B9234C)	-0.168	0.999	0.303	65.125	40.283	154.907	91.99	42.46	-18.61	12.348	-36.162	-15.386	-0.57419	-0.66867	-0.13828	0.45163	20.8	13111	100
2025-5-24 8:43:9.347	WT901BLE68(801231B9234C)	-0.199	1.219	0.302	75.806	32.532	179.321	93.99	38.60	-17.07	14.210	-35.280	-14.504	-0.57419	-0.66867	-0.13828	0.45163	20.8	13111	100
2025-5-24 8:43:9.944	WT901BLE68(801231B9234C)	-0.175	1.448	0.283	72.449	19.226	196.106	95.63	34.38	-16.06	14.210	-35.280	-14.504	-0.57419	-0.66867	-0.13828	0.45163	20.8	13111	100
2025-5-24 8:43:9.944	WT901BLE68(801231B9234C)	-0.104	1.553	0.239	64.819	3.784	205.505	96.78	29.99	-15.62	14.210	-35.280	-14.504	-0.57419	-0.66867	-0.13828	0.45163	20.8	13111	100
2025-5-24 8:43:9.945	WT901BLE68(801231B9234C)	-0.087	1.502	0.206	56.702	4.272	207.458	97.66	25.56	-15.46	14.210	-35.280	-14.504	-0.57419	-0.66867	-0.13828	0.45163	20.8	13111	100
2025-5-24 8:43:9.945	WT901BLE68(801231B9234C)	-0.085	1.310	0.200	49.438	21.484	203.552	98.45	21.19	-15.18	14.210	-35.280	-14.504	-0.57419	-0.66867	-0.13828	0.45163	20.8	13111	100
2025-5-24 8:43:9.946	WT901BLE68(801231B9234C)	-0.094	1.085	0.211	42.603	47.302	196.899	99.22	16.91	-14.60	14.210	-35.280	-14.504	-0.57419	-0.66867	-0.13828	0.45163	20.8	13111	100
2025-5-24 8:43:9.946	WT901BLE68(801231B9234C)	-0.160	0.905	0.215	37.048	76.111	187.256	99.93	12.77	-13.70	14.210	-35.280	-14.504	-0.57419	-0.66867	-0.13828	0.45163	20.8	13111	100
2025-5-24 8:43:10.125	WT901BLE68(801231B9234C)	-0.216	0.811	0.207	32.898	98.450	177.185	100.56	8.85	-12.72	14.210	-35.280	-14.504	-0.57419	-0.66867	-0.13828	0.45163	20.8	13111	100
2025-5-24 8:43:10.126	WT901BLE68(801231B9234C)	-0.252	0.769	0.191	26.367	108.643	167.725	101.05	5.19	-11.84	14.210	-35.280	-14.504	-0.57419	-0.66867	-0.13828	0.45163	20.8	13111	100
2025-5-24 8:43:10.127	WT901BLE68(801231B9234C)	-0.287	0.741	0.189	19.165	111.145	158.020	101.35	1.77	-11.01	14.210	-35.280	-14.504	-0.57419	-0.66867	-0.13828	0.45163	20.8	13111	100
2025-5-24 8:43:10.127	WT901BLE68(801231B9234C)	-0.348	0.734	0.169	13.428	108.765	150.513	101.49	-1.41	-10.23	14.210	-35.280	-14.504	-0.57419	-0.66867	-0.13828	0.45163	20.8	13111	100
2025-5-24 8:43:10.128	WT901BLE68(801231B9234C)	-0.398	0.803	0.167	9.827	98.816	148.621	101.50	-4.44	-9.60	14.210	-35.280	-14.504	-0.57419	-0.66867	-0.13828	0.45163	20.8	13111	100
2025-5-24 8:43:10.128	WT901BLE68(801231B9234C)	-0.445	0.938	0.179	5.493	80.017	153.564	101.44	-7.40	-9.28	14.210	-35.280	-14.504	-0.57419	-0.66867	-0.13828	0.45163	20.8	13111	100
2025-5-24 8:43:10.128	WT901BLE68(801231B9234C)	-0.473	1.044	0.194	-2.319	61.646	163.696	101.29	-10.40	-9.36	14.210	-35.280	-14.504	-0.57419	-0.66867	-0.13828	0.45163	20.8	13111	100
2025-5-24 8:43:10.128	WT901BLE68(801231B9234C)	-0.493	1.101	0.201	-6.531	49.133	172.302	101.08	-13.49	-9.76	14.210	-35.280	-14.504	-0.57419	-0.66867	-0.13828	0.45163	20.8	13111	100
2025-5-24 8:43:10.129	WT901BLE68(801231B9234C)	-0.600	1.224	0.172	-4.700	46.448	171.814	100.92	-16.58	-10.28	14.210	-35.280	-14.504	-0.57419	-0.66867	-0.13828	0.45163	20.8	13111	100
2025-5-24 8:43:10.129	WT901BLE68(801231B9234C)	-0.813	1.345	0.160	-7.202	57.617	150.146	100.70	-19.42	-10.58	14.210	-35.280	-14.504	-0.57419	-0.66867	-0.13828	0.45163	20.8	13111	100
2025-5-24 8:43:10.130	WT901BLE68(801231B9234C)	-0.862	1.313	0.147	-5.737	63.049	104.309	100.33	-21.54	-10.50	14.210	-35.280	-14.504	-0.57419	-0.66867	-0.13828	0.45163	20.8	13111	100
2025-5-24 8:43:10.130	WT901BLE68(801231B9234C)	-0.567	1.254	0.147	3.113	41.504	50.293	100.10	-22.54	-10.39	14.210	-35.280	-14.504	-0.57419	-0.66867	-0.13828	0.45163	20.8	13111	100
2025-5-24 8:43:10.131	WT901BLE68(801231B9234C)	-0.355	1.177	0.148	11.047	0.793	12.695	100.29	-22.52	-10.85	14.210	-35.280	-14.504	-0.57419	-0.66867	-0.13828	0.45163	20.8	13111	100
2025-5-24 8:43:10.131	WT901BLE68(801231B9234C)	-0.455	1.204	0.113	16.235	-25.452	-24.475	100.79	-21.65	-11.86	14.210	-35.280	-14.504	-0.57419	-0.66867	-0.13828	0.45163	20.8	13111	100
2025-5-24 8:43:10.131	WT901BLE68(801231B9234C)	-0.612	1.313	0.122	11.658	-35.583	-56.091	101.34	-20.07	-12.99	14.210	-35.280	-14.504	-0.57419	-0.66867	-0.13828	0.45163	20.8	13111	100
2025-5-24 8:43:10.131	WT901BLE68(801231B9234C)	-0.593	1.271	0.116	12.634	-54.688	-72.815	101.82	-18.02	-14.29	14.210	-35.280	-14.504	-0.57419	-0.66867	-0.13828	0.45163	20.8	13111	100
2025-5-24 8:43:10.155	WT901BLE68(801231B9234C)	-0.141	1.285	0.085	12.573	-69.397	-95.215	102.38	-15.53	-15.82	-10.192	-34.986	-5.978	-0.57419	-0.66867	-0.13828	0.45163	20.8	13111	100
2025-5-24 8:43:10.155	WT901BLE68(801231B9234C)	-0.104	1.294	-0.012	-33.203	-166.504	-210.327	99.90	21.66	-37.60	-10.192	-34.986	-5.978	-0.57419	-0.66867	-0.13828	0.45163	20.8	13111	100
2025-5-24 8:43:10.156	WT901BLE68(801231B9234C)	-0.068	1.181	-0.010	-41.626	-156.921	-218.445	97.89	26.33	-40.72	-10.192	-34.986	-5.978	-0.53821	-0.74261	0.12018	0.37982	20.8	13111	100
2025-5-24 8:43:10.156	WT901BLE68(801231B9234C)	-0.047	1.083	0.003	-49.438	-145.203	-225.891	95.52	30.95	-43.85	-10.192	-34.986	-5.978	-0.53821	-0.74261	0.12018	0.37982	20.8	13111	100
2025-5-24 8:43:10.157	WT901BLE68(801231B9234C)	-0.041	0.997	0.025	-59.021	-129.883	-232.117	92.77	35.50	-46.97	-10.192	-34.986	-5.978	-0.53821	-0.74261	0.12018	0.37982	20.8	13111	100
2025-5-24 8:43:10.157	WT901BLE68(801231B9234C)	-0.039	0.924	0.010	-66.101	-110.779	-234.802	89.72	39.91	-50.02	-10.192	-34.986	-5.978	-0.53821	-0.74261	0.12018	0.37982	20.8	13111	100
2025-5-24 8:43:10.158	WT901BLE68(801231B9234C)	-0.096	0.896	0.008	-68.909	-90.759	-233.643	86.50	44.15	-52.88	-10.192	-34.986	-5.978	-0.53821	-0.74261	0.12018	0.37982	20.8	13111	100
2025-5-24 8:43:10.158	WT901BLE68(801231B9234C)	-0.057	1.095	0.000	-77.209	-56.763	-190.125	76.66	55.05	-59.72	6.860	-37.828	-6.272	-0.53821	-0.74261	0.12018	0.37982	20.8	13111	100
2025-5-24 8:43:10.214	WT901BLE68(801231B9234C)	-0.029	1.106	-0.002	-81.787	-43.701	-169.495	73.23	57.92	-61.46	6.860	-37.828	-6.272	-0.53821	-0.74261	0.12018	0.37982	20.8	13111	100
2025-5-24 8:43:10.215	WT901BLE68(801231B9234C)	0.003	1.065	-0.012	-85.083	-19.043	-152.588	70.19	60.52	-62.52	6.860	-37.828	-6.272	-0.53821	-0.74261	0.12018	0.37982	20.8	13111	100
2025-5-24 8:43:10.243	WT901BLE68(801231B9234C)	-0.008	1.018	-0.044	-78.552	10.376	-134.216	68.08	62.96	-62.54	6.860	-37.828	-6.272	-0.53821	-0.74261	0.12018	0.37982	20.8	13111	100
2025-5-24 8:43:10.243	WT901BLE68(801231B9234C)	-0.061	0.990	-0.067	-66.101	39.368	-112.000	67.50	65.21	-61.06	6.860	-37.828	-6.272	-0.53821	-0.74261	0.12018	0.37982	20.8	13111	100
2025-5-24 8:43:10.306	WT901BLE68(801231B9234C)	-0.114	1.040	-0.025	-49.316	59.753	-83.313	68.72	67.16	-57.94	6.860	-37.828	-6.272	-0.53821	-0.74261	0.12018	0.37982	20.8	13111	100
2025-5-24 8:43:10.306	WT901BLE68(801231B9234C)	-0.133	1.083	-0.042	-36.865	70.129	-38.879	71.83	68.41	-53.13	6.860	-37.828	-6.272	-0.53821	-0.74261	0.12018	0.37982	20.8	13111	100
2025-5-24 8:43:10.307	WT901BLE68(801231B9234C)	-0.163	0.890	-0.056	-26.123	76.599	11.230	76.44	68.63	-46.94	6.860	-37.828	-6.272	-0.53821	-0.74261	0.12018	0.37982	20.8	13111	100
2025-5-24 8:43:10.307	WT901BLE68(801231B9234C)	-0.244	0.660	-0.011	-2.808	83.679	66.650	82.03	67.64	-40.05	6.860	-37.828	-6.272	-0.53821	-0.74261	0.12018	0.37982	20.8	13111	100
2025-5-24 8:43:10.364	WT901BLE68(801231B9234C)	-0.306	0.583	0.073	30.273	87.280	126.648	87.92	65.24	-33.42	6.860	-37.828	-6.272	-0.53821	-0.74261	0.12018	0.37982	20.8	13111	100
2025-5-24 8:43:10.364	WT901BLE68(801231B9234C)	-0.284	0.680	0.145	57.617	77.148	181.152	92.88	61.53	-28.30	6.860	-37.828	-6.272	-0.53821	-0.74261	0.12018	0.37982	20.8	13111	100
2025-5-24 8:43:10.394	WT901BLE68(801231B9234C)	-0.244	0.852	0.189	77.026	59.204	232.849	96.41	56.69	-25.15	6.860	-37.828	-6.272	-0.49426	-0.71262	-0.16061	0.47113	20.8	13111	100
2025-5-24 8:43:10.394	WT901BLE68(801231B9234C)	-0.217	1.088	0.196	89.661	40.588	278.870	98.75	50.93	-23.63	6.860	-37.828	-6.272	-0.49426	-0.71262	-0.16061	0.47113	20.8	13111	100
2025-5-24 8:43:10.454	WT901BLE68(801231B9234C)	-0.195	1.371	0.191	92.407	23.132	319.153	100.31	44.42	-23.22	6.860	-37.828	-6.272	-0.49426	-0.71262	-0.16061	0.47113	20.8	13111	100
2025-5-24 8:43:10.454	WT901BLE68(801231B9234C)	-0.164	1.520	0.166	87.280	10.803	344.666	101.34	37.40	-23.51	6.860	-37.828	-6.272	-0.49426	-0.71262	-0.16061	0.47113	20.8	13111	100
2025-5-24 8:43:10.483	WT901BLE68(801231B9234C)	-0.110	1.496	0.159	84.167	9.949	354.370	102.24	30.16	-24.05	6.860	-37.828	-6.272	-0.49426	-0.71262	-0.16061	0.47113	20.8	13111	100
2025-5-24 8:43:10.483	WT901BLE68(801231B9234C)	-0.088	1.437	0.168	81.177	19.775	353.577	103.20	22.90	-24.58	6.860	-37.828	-6.272	-0.49426	-0.71262	-0.16061	0.47113	20.8	13111	100
2025-5-24 8:43:10.936	WT901BLE68(801231B9234C)	-0.140	1.372	0.200	72.388	39.856	342.346	104.10	15.97	-26.11	6.860	-37.828	-6.272	-0.49426	-0.71262	-0.16061	0.47113	20.8	13111	100
2025-5-24 8:43:10.936	WT901BLE68(801231B9234C)	-0.178	1.335	0.222	64.270	60.791	324.036	105.06	9.42	-27.68	6.860	-37.828	-6.272	-0.49426	-0.71262	-0.16061	0.47113	20.8	13111	100
2025-5-24 8:43:10.937	WT901BLE68(801231B9234C)	-0.198	1.284	0.209	56.641	80.994	299.683	106.00	3.25	-28.82	6.860	-37.828	-6.272	-0.49426	-0.71262	-0.16061	0.47113	20.8	13111	100
2025-5-24 8:43:10.937	WT901BLE68(801231B9234C)	-0.377	1.189	0.149	49.622	109.619	264.160	106.87	-2.40	-29.35	6.860	-37.828	-6.272	-0.49426	-0.71262	-0.16061	0.47113	20.8	13111	100
2025-5-24 8:43:10.965	WT901BLE68(801231B9234C)	-0.543	1.125	0.220	36.987	123.535	212.219	107.46	-7.25	-29.21	6.860	-37.828	-6.272	-0.49426	-0.71262	-0.16061	0.47113	20.8	13111	100
2025-5-24 8:43:10.965	WT901BLE68(801231B9234C)	-0.378	1.125	0.305	30.212	101.379	167.908	107.80	-11.04	-28.93	6.860	-37.828	-6.272	-0.49426	-0.71262	-0.16061	0.47113	20.8	13111	100
2025-5-24 8:43:10.966	WT901BLE68(801231B9234C)	-0.247	1.160	0.354	25.574	71.716	139.404	108.11	-13.95	-29.03	6.860	-37.828	-6.272	-0.49426	-0.71262	-0.16061	0.47113	20.8	13111	100
2025-5-24 8:43:10.966	WT901BLE68(801231B9234C)	-0.328	1.214	0.388	14.648	77.026	113.831	108.22	-16.27	-29.15	6.860	-37.828	-6.272	-0.49426	-0.71262	-0.16061	0.47113	20.8	13111	100
2025-5-24 8:43:10.968	WT901BLE68(801231B9234C)	-0.414	1.285	0.354	0.854	107.117	100.586	107.87	-18.36	-28.65	6.860	-37.828	-6.272	-0.49426	-0.71262	-0.16061	0.47113	20.8	13111	100
2025-5-24 8:43:10.968	WT901BLE68(801231B9234C)	-0.466	1.279	0.290	-10.620	139.709	94.666	106.97	-20.47	-27.42	6.860	-37.828	-6.272	-0.49426	-0.71262	-0.16061	0.47113	20.8	13111	100
2025-5-24 8:43:10.969	WT901BLE68(801231B9234C)	-0.553	1.157	0.191	-19.348	176.025	83.679	105.53	-22.56	-25.30	6.860	-37.828	-6.272	-0.49426	-0.71262	-0.16061	0.47113	20.8	13111	100
2025-5-24 8:43:10.969	WT901BLE68(801231B9234C)	-0.702	1.059	0.104	-22.461	196.533	62.561	103.58	-24.37	-22.38	6.860	-37.828	-6.272	-0.49426	-0.71262	-0.16061	0.47113	20.8	13111	100
2025-5-24 8:43:10.969	WT901BLE68(801231B9234C)	-0.817	1.058	0.056	-20.752	185.547	33.203	101.49	-25.53	-19.15	6.860	-37.828	-6.272	-0.49426	-0.71262	-0.16061	0.47113	20.8	13111	100
2025-5-24 8:43:10.970	WT901BLE68(801231B9234C)	-0.785	1.208	-0.016	-8.606	140.198	3.357	99.79	-25.84	-16.45	6.860	-37.828	-6.272	-0.49426	-0.71262	-0.16061	0.47113	20.8	13111	100
2025-5-24 8:43:10.970	WT901BLE68(801231B9234C)	-0.708	1.370	-0.042	-3.113	86.365	-25.818	98.78	-25.31	-14.75	6.860	-37.828	-6.272	-0.49426	-0.71262	-0.16061	0.47113	20.8	13111	100
2025-5-24 8:43:10.970	WT901BLE68(801231B9234C)	-0.623	1.370	-0.028	6.592	37.659	-55.603	98.40	-24.02	-14.07	6.860	-37.828	-6.272	-0.49426	-0.71262	-0.16061	0.47113	20.8	13111	100
2025-5-24 8:43:10.971	WT901BLE68(801231B9234C)	-0.520	1.335	-0.026	15.015	-1.343	-85.815	98.56	-22.02	-14.19	6.860	-37.828	-6.272	-0.49426	-0.71262	-0.16061	0.47113	20.8	13111	100
2025-5-24 8:43:10.971	WT901BLE68(801231B9234C)	-0.468	1.329	-0.030	25.879	-28.748	-117.126	99.12	-19.33	-14.83	6.860	-37.828	-6.272	-0.49426	-0.71262	-0.16061	0.47113	20.8	13111	100
2025-5-24 8:43:10.972	WT901BLE68(801231B9234C)	-0.458	1.427	-0.031	35.645	-47.913	-146.912	99.96	-15.99	-15.75	6.860	-37.828	-6.272	-0.49426	-0.71262	-0.16061	0.47113	20.8	13111	100
2025-5-24 8:43:10.972	WT901BLE68(801231B9234C)	-0.456	1.477	-0.042	41.016	-69.153	-169.250	100.94	-12.13	-16.89	6.860	-37.828	-6.272	-0.49426	-0.71262	-0.16061	0.47113	20.8	13111	100
2025-5-24 8:43:10.972	WT901BLE68(801231B9234C)	-0.432	1.497	-0.075	47.424	-99.121	-187.195	102.03	-7.83	-18.37	6.860	-37.828	-6.272	-0.49426	-0.71262	-0.16061	0.47113	20.8	13111	100
2025-5-24 8:43:10.972	WT901BLE68(801231B9234C)	-0.395	1.514	-0.100	49.805	-135.437	-197.571	103.15	-3.15	-20.36	6.860	-37.828	-6.272	-0.49426	-0.71262	-0.16061	0.47113	20.8	13111	100
2025-5-24 8:43:11.84	WT901BLE68(801231B9234C)	-0.344	1.463	-0.084	46.204	-170.959	-206.909	104.09	1.85	-22.91	6.860	-37.828	-6.272	-0.49426	-0.71262	-0.16061	0.47113	20.8	13111	100
2025-5-24 8:43:11.84	WT901BLE68(801231B9234C)	-0.272	1.385	-0.069	39.551	-200.989	-218.079	104.67	7.18	-25.96	6.860	-37.828	-6.272	-0.56696	-0.78101	0.13947	0.22141	20.8	13111	100
2025-5-24 8:43:11.85	WT901BLE68(801231B9234C)	-0.187	1.313	-0.051	27.405	-222.839	-229.614	104.70	12.80	-29.42	6.860	-37.828	-6.272	-0.56696	-0.78101	0.13947	0.22141	20.8	13111	100
2025-5-24 8:43:11.85	WT901BLE68(801231B9234C)	-0.098	1.227	-0.041	12.634	-234.192	-242.004	104.04	18.65	-33.23	-15.582	-30.282	-6.370	-0.56696	-0.78101	0.13947	0.22141	20.8	13111	100
2025-5-24 8:43:11.116	WT901BLE68(801231B9234C)	-0.042	1.149	-0.038	-2.808	-228.577	-254.089	102.66	24.58	-37.23	-15.582	-30.282	-6.370	-0.56696	-0.78101	0.13947	0.22141	20.8	13111	100
2025-5-24 8:43:11.116	WT901BLE68(801231B9234C)	-0.022	1.092	-0.031	-16.235	-209.045	-265.381	100.65	30.49	-41.22	-15.582	-30.282	-6.370	-0.56696	-0.78101	0.13947	0.22141	20.8	13111	100
2025-5-24 8:43:11.117	WT901BLE68(801231B9234C)	-0.019	1.058	-0.027	-25.757	-180.237	-273.315	98.18	36.27	-45.05	-15.582	-30.282	-6.370	-0.56696	-0.78101	0.13947	0.22141	20.8	13111	100
2025-5-24 8:43:11.117	WT901BLE68(801231B9234C)	-0.038	1.051	-0.024	-33.081	-151.245	-275.330	95.39	41.82	-48.72	-15.582	-30.282	-6.370	-0.56696	-0.78101	0.13947	0.22141	20.8	13111	100
2025-5-24 8:43:11.118	WT901BLE68(801231B9234C)	-0.082	1.105	-0.000	-37.720	-125.854	-269.958	92.29	47.06	-52.32	-15.582	-30.282	-6.370	-0.56696	-0.78101	0.13947	0.22141	20.8	13111	100
2025-5-24 8:43:11.118	WT901BLE68(801231B9234C)	-0.085	1.244	-0.001	-44.495	-109.802	-253.601	88.78	51.83	-56.06	-15.582	-30.282	-6.370	-0.56696	-0.78101	0.13947	0.22141	20.8	13111	100
2025-5-24 8:43:11.174	WT901BLE68(801231B9234C)	-0.034	1.302	-0.007	-59.570	-97.168	-230.103	84.58	55.96	-60.14	-15.582	-30.282	-6.370	-0.56696	-0.78101	0.13947	0.22141	20.8	13111	100
2025-5-24 8:43:11.174	WT901BLE68(801231B9234C)	0.015	1.270	-0.022	-71.777	-75.623	-205.750	79.94	59.43	-64.14	-15.582	-30.282	-6.370	-0.56696	-0.78101	0.13947	0.22141	20.8	13111	100
2025-5-24 8:43:11.205	WT901BLE68(801231B9234C)	0.061	1.227	-0.055	-77.209	-39.856	-180.847	76.09	62.46	-66.56	-15.582	-30.282	-6.370	-0.38635	-0.66418	-0.05295	0.63770	20.8	13111	100
2025-5-24 8:43:11.205	WT901BLE68(801231B9234C)	0.055	1.123	-0.073	-76.904	6.531	-157.898	73.87	65.37	-66.73	-15.582	-30.282	-6.370	-0.38635	-0.66418	-0.05295	0.63770	20.8	13111	100
2025-5-24 8:43:11.236	WT901BLE68(801231B9234C)	-0.035	1.022	-0.082	-66.406	50.232	-136.536	73.98	68.15	-64.42	-15.582	-30.282	-6.370	-0.38635	-0.66418	-0.05295	0.63770	20.8	13111	100
2025-5-24 8:43:11.236	WT901BLE68(801231B9234C)	-0.130	1.043	-0.050	-49.194	79.651	-106.689	76.89	70.57	-59.44	-15.582	-30.282	-6.370	-0.38635	-0.66418	-0.05295	0.63770	20.8	13111	100
2025-5-24 8:43:11.294	WT901BLE68(801231B9234C)	-0.147	1.185	-0.079	-33.020	89.172	-59.631	82.51	72.12	-52.03	-15.582	-30.282	-6.370	-0.38635	-0.66418	-0.05295	0.63770	20.8	13111	100
2025-5-24 8:43:11.294	WT901BLE68(801231B9234C)	-0.154	1.002	-0.096	-28.687	88.379	-2.930	89.32	72.28	-43.55	-15.582	-30.282	-6.370	-0.38635	-0.66418	-0.05295	0.63770	20.8	13111	100
2025-5-24 8:43:11.325	WT901BLE68(801231B9234C)	-0.258	0.875	-0.060	-2.380	89.722	62.866	96.02	70.92	-35.55	-15.582	-30.282	-6.370	-0.38635	-0.66418	-0.05295	0.63770	20.8	13111	100
2025-5-24 8:43:11.326	WT901BLE68(801231B9234C)	-0.365	0.798	0.026	27.344	85.144	128.784	101.36	68.02	-29.49	-15.582	-30.282	-6.370	-0.38635	-0.66418	-0.05295	0.63770	20.8	13111	100
2025-5-24 8:43:11.384	WT901BLE68(801231B9234C)	-0.297	0.872	0.144	50.842	69.702	184.875	104.75	63.91	-25.99	-15.582	-30.282	-6.370	-0.38635	-0.66418	-0.05295	0.63770	20.8	13111	100
2025-5-24 8:43:11.384	WT901BLE68(801231B9234C)	-0.199	1.033	0.202	69.580	43.030	238.403	106.28	58.90	-24.87	-15.582	-30.282	-6.370	-0.38635	-0.66418	-0.05295	0.63770	20.8	13111	100
2025-5-24 8:43:11.474	WT901BLE68(801231B9234C)	-0.237	1.276	0.249	79.163	28.931	274.841	107.03	53.20	-24.99	17.346	-45.668	-3.626	-0.38635	-0.66418	-0.05295	0.63770	20.8	13111	100
2025-5-24 8:43:11.474	WT901BLE68(801231B9234C)	-0.162	1.442	0.203	57.312	5.066	301.514	106.99	47.12	-25.85	17.346	-45.668	-3.626	-0.38635	-0.66418	-0.05295	0.63770	20.8	13111	100
2025-5-24 8:43:11.476	WT901BLE68(801231B9234C)	-0.072	1.357	0.132	61.523	-3.967	324.646	106.67	40.71	-27.05	17.346	-45.668	-3.626	-0.38635	-0.66418	-0.05295	0.63770	20.8	13111	100
2025-5-24 8:43:11.476	WT901BLE68(801231B9234C)	-0.033	1.365	0.069	63.416	2.991	337.524	106.76	34.03	-28.05	17.346	-45.668	-3.626	-0.38635	-0.66418	-0.05295	0.63770	20.8	13111	100
2025-5-24 8:43:11.477	WT901BLE68(801231B9234C)	-0.032	1.316	0.084	58.594	23.071	340.576	106.61	27.64	-31.52	17.346	-45.668	-3.626	-0.38635	-0.66418	-0.05295	0.63770	20.8	13111	100
2025-5-24 8:43:11.477	WT901BLE68(801231B9234C)	-0.094	1.276	0.120	52.124	57.800	335.327	106.85	21.02	-33.96	17.346	-45.668	-3.626	-0.38635	-0.66418	-0.05295	0.63770	20.8	13111	100
2025-5-24 8:43:11.924	WT901BLE68(801231B9234C)	-0.208	1.267	0.109	44.800	93.750	322.388	107.36	14.36	-35.40	17.346	-45.668	-3.626	-0.38635	-0.66418	-0.05295	0.63770	20.8	13111	100
2025-5-24 8:43:11.925	WT901BLE68(801231B9234C)	-0.300	1.270	0.104	34.363	118.591	303.589	107.91	7.89	-36.08	17.346	-45.668	-3.626	-0.38635	-0.66418	-0.05295	0.63770	20.8	13111	100
2025-5-24 8:43:11.925	WT901BLE68(801231B9234C)	-0.420	1.228	0.130	23.376	128.662	281.494	108.29	1.78	-36.32	17.346	-45.668	-3.626	-0.38635	-0.66418	-0.05295	0.63770	20.8	13111	100
2025-5-24 8:43:11.926	WT901BLE68(801231B9234C)	-0.591	1.193	0.166	13.184	125.977	250.244	108.44	-3.76	-36.32	17.346	-45.668	-3.626	-0.38635	-0.66418	-0.05295	0.63770	20.8	13111	100
2025-5-24 8:43:11.926	WT901BLE68(801231B9234C)	-0.672	1.189	0.239	4.639	105.713	213.013	108.36	-8.48	-36.29	17.346	-45.668	-3.626	-0.38635	-0.66418	-0.05295	0.63770	20.8	13111	100
2025-5-24 8:43:11.926	WT901BLE68(801231B9234C)	-0.552	1.163	0.273	-0.488	71.289	175.232	108.20	-12.19	-36.55	17.346	-45.668	-3.626	-0.38635	-0.66418	-0.05295	0.63770	20.8	13111	100
2025-5-24 8:43:12.75	WT901BLE68(801231B9234C)	-0.422	1.166	0.277	-2.319	41.443	140.869	108.06	-14.96	-37.16	17.346	-45.668	-3.626	-0.38635	-0.66418	-0.05295	0.63770	20.8	13111	100
2025-5-24 8:43:12.75	WT901BLE68(801231B9234C)	-0.403	1.256	0.247	-5.066	34.241	111.206	107.92	-16.99	-37.86	17.346	-45.668	-3.626	-0.38635	-0.66418	-0.05295	0.63770	20.8	13111	100
2025-5-24 8:43:12.76	WT901BLE68(801231B9234C)	-0.460	1.277	0.209	-12.634	53.162	87.097	107.56	-18.56	-38.17	17.346	-45.668	-3.626	-0.38635	-0.66418	-0.05295	0.63770	20.8	13111	100
2025-5-24 8:43:12.76	WT901BLE68(801231B9234C)	-0.480	1.160	0.127	-15.442	76.904	67.078	106.85	-19.86	-37.81	17.346	-45.668	-3.626	-0.38635	-0.66418	-0.05295	0.63770	20.8	13111	100
2025-5-24 8:43:12.77	WT901BLE68(801231B9234C)	-0.456	1.060	0.092	-13.428	99.548	46.326	105.95	-20.89	-36.83	17.346	-45.668	-3.626	-0.38635	-0.66418	-0.05295	0.63770	20.8	13111	100
2025-5-24 8:43:12.78	WT901BLE68(801231B9234C)	-0.510	0.977	0.068	-8.423	118.469	25.146	104.89	-21.59	-35.24	17.346	-45.668	-3.626	-0.38635	-0.66418	-0.05295	0.63770	20.8	13111	100
2025-5-24 8:43:12.79	WT901BLE68(801231B9234C)	-0.616	1.158	0.000	5.554	120.483	-0.854	103.93	-21.83	-33.31	17.346	-45.668	-3.626	-0.38635	-0.66418	-0.05295	0.63770	20.8	13111	100
2025-5-24 8:43:12.79	WT901BLE68(801231B9234C)	-0.762	1.341	-0.007	0.793	101.868	-19.348	103.10	-21.55	-31.46	17.346	-45.668	-3.626	-0.38635	-0.66418	-0.05295	0.63770	20.8	13111	100
2025-5-24 8:43:12.80	WT901BLE68(801231B9234C)	-0.815	1.328	-0.005	2.258	63.843	-37.903	102.46	-20.77	-30.18	17.346	-45.668	-3.626	-0.38635	-0.66418	-0.05295	0.63770	20.8	13111	100
2025-5-24 8:43:12.80	WT901BLE68(801231B9234C)	-0.685	1.389	-0.029	10.559	8.972	-61.462	102.32	-19.33	-29.81	17.346	-45.668	-3.626	-0.38635	-0.66418	-0.05295	0.63770	20.8	13111	100
2025-5-24 8:43:12.81	WT901BLE68(801231B9234C)	-0.498	1.464	-0.080	19.653	-45.898	-90.698	102.72	-17.14	-30.45	17.346	-45.668	-3.626	-0.38635	-0.66418	-0.05295	0.63770	20.8	13111	100
2025-5-24 8:43:12.81	WT901BLE68(801231B9234C)	-0.415	1.513	-0.104	24.231	-78.796	-124.573	103.42	-14.14	-31.74	17.346	-45.668	-3.626	-0.38635	-0.66418	-0.05295	0.63770	20.8	13111	100
2025-5-24 8:43:12.82	WT901BLE68(801231B9234C)	-0.411	1.525	-0.106	27.405	-100.769	-154.663	104.17	-10.44	-33.29	17.346	-45.668	-3.626	-0.59766	-0.74265	0.27750	0.11890	20.8	13111	100
2025-5-24 8:43:12.82	WT901BLE68(801231B9234C)	-0.364	1.554	-0.120	32.532	-123.962	-180.908	104.95	-6.14	-35.04	17.346	-45.668	-3.626	-0.59766	-0.74265	0.27750	0.11890	20.8	13111	100
2025-5-24 8:43:12.83	WT901BLE68(801231B9234C)	-0.288	1.574	-0.111	32.898	-149.231	-198.242	105.66	-1.35	-37.08	17.346	-45.668	-3.626	-0.59766	-0.74265	0.27750	0.11890	20.8	13111	100
2025-5-24 8:43:12.83	WT901BLE68(801231B9234C)	-0.240	1.507	-0.080	25.146	-165.894	-213.684	106.11	3.78	-39.36	17.346	-45.668	-3.626	-0.59766	-0.74265	0.27750	0.11890	20.8	13111	100
2025-5-24 8:43:12.105	WT901BLE68(801231B9234C)	-0.236	1.398	-0.054	17.273	-170.288	-231.445	106.18	9.23	-41.70	17.346	-45.668	-3.626	-0.59766	-0.74265	0.27750	0.11890	20.8	13111	100
2025-5-24 8:43:12.105	WT901BLE68(801231B9234C)	-0.193	1.321	-0.042	9.460	-171.509	-247.314	105.89	14.94	-44.02	-25.186	-38.416	-6.762	-0.59766	-0.74265	0.27750	0.11890	20.8	13111	100
2025-5-24 8:43:12.106	WT901BLE68(801231B9234C)	-0.141	1.239	-0.046	1.526	-172.974	-260.437	105.22	20.81	-46.39	-25.186	-38.416	-6.762	-0.59766	-0.74265	0.27750	0.11890	20.8	13111	100
2025-5-24 8:43:12.106	WT901BLE68(801231B9234C)	-0.118	1.158	-0.048	-5.981	-172.668	-270.874	104.13	26.80	-48.89	-25.186	-38.416	-6.762	-0.59766	-0.74265	0.27750	0.11890	20.8	13111	100
2025-5-24 8:43:12.107	WT901BLE68(801231B9234C)	-0.104	1.108	-0.049	-12.695	-171.448	-278.992	102.60	32.82	-51.58	-25.186	-38.416	-6.762	-0.59766	-0.74265	0.27750	0.11890	20.8	13111	100
2025-5-24 8:43:12.108	WT901BLE68(801231B9234C)	-0.093	1.107	-0.042	-20.569	-169.312	-284.485	100.51	38.81	-54.59	-25.186	-38.416	-6.762	-0.59766	-0.74265	0.27750	0.11890	20.8	13111	100
2025-5-24 8:43:12.108	WT901BLE68(801231B9234C)	-0.077	1.189	-0.042	-29.053	-164.917	-284.119	97.76	44.64	-58.04	-25.186	-38.416	-6.762	-0.59766	-0.74265	0.27750	0.11890	20.8	13111	100
2025-5-24 8:43:12.109	WT901BLE68(801231B9234C)	-0.045	1.288	-0.036	-43.335	-154.785	-277.161	94.16	50.14	-62.01	-25.186	-38.416	-6.762	-0.59766	-0.74265	0.27750	0.11890	20.8	13111	100
2025-5-24 8:43:12.136	WT901BLE68(801231B9234C)	0.000	1.371	-0.025	-59.875	-138.367	-265.625	89.60	55.15	-66.45	-25.186	-38.416	-6.762	-0.34238	-0.69995	0.06683	0.62311	20.8	13111	100
2025-5-24 8:43:12.136	WT901BLE68(801231B9234C)	0.067	1.402	-0.043	-77.209	-113.220	-247.192	84.41	59.57	-70.85	-25.186	-38.416	-6.762	-0.34238	-0.69995	0.06683	0.62311	20.8	13111	100
2025-5-24 8:43:12.165	WT901BLE68(801231B9234C)	0.099	1.313	-0.062	-88.989	-74.890	-225.952	79.48	63.62	-73.97	-25.186	-38.416	-6.762	-0.34238	-0.69995	0.06683	0.62311	20.8	13111	100
2025-5-24 8:43:12.166	WT901BLE68(801231B9234C)	0.079	1.222	-0.068	-89.478	-25.330	-203.918	75.58	67.41	-75.60	13.524	-50.960	-4.606	-0.34238	-0.69995	0.06683	0.62311	20.8	13111	100
2025-5-24 8:43:12.224	WT901BLE68(801231B9234C)	0.038	1.125	-0.068	-83.435	21.362	-179.016	73.73	70.96	-75.02	13.524	-50.960	-4.606	-0.34238	-0.69995	0.06683	0.62311	20.8	13111	100
2025-5-24 8:43:12.225	WT901BLE68(801231B9234C)	0.020	1.082	-0.084	-69.580	52.673	-150.635	74.67	74.17	-71.74	13.524	-50.960	-4.606	-0.34238	-0.69995	0.06683	0.62311	20.8	13111	100
2025-5-24 8:43:12.253	WT901BLE68(801231B9234C)	0.082	1.104	-0.103	-52.917	77.698	-112.732	79.60	76.77	-64.68	13.524	-50.960	-4.606	-0.34238	-0.69995	0.06683	0.62311	20.8	13111	100
2025-5-24 8:43:12.253	WT901BLE68(801231B9234C)	-0.041	1.452	-0.208	-37.842	96.741	-57.068	89.34	78.17	-53.01	13.524	-50.960	-4.606	-0.34238	-0.69995	0.06683	0.62311	20.8	13111	100
2025-5-24 8:43:12.283	WT901BLE68(801231B9234C)	-0.182	0.825	-0.149	-20.020	105.347	5.676	101.46	77.81	-39.31	13.524	-50.960	-4.606	-0.34238	-0.69995	0.06683	0.62311	20.8	13111	100
2025-5-24 8:43:12.283	WT901BLE68(801231B9234C)	-0.370	0.750	-0.068	16.174	105.469	86.121	110.87	75.51	-28.92	13.524	-50.960	-4.606	-0.34238	-0.69995	0.06683	0.62311	20.8	13111	100
2025-5-24 8:43:12.345	WT901BLE68(801231B9234C)	-0.440	0.794	0.052	44.983	86.670	163.635	115.26	71.61	-24.29	13.524	-50.960	-4.606	-0.34238	-0.69995	0.06683	0.62311	20.8	13111	100
2025-5-24 8:43:12.346	WT901BLE68(801231B9234C)	-0.257	0.897	0.143	57.556	45.654	228.271	115.64	66.74	-24.25	13.524	-50.960	-4.606	-0.34238	-0.69995	0.06683	0.62311	20.8	13111	100
2025-5-24 8:43:12.376	WT901BLE68(801231B9234C)	-0.175	1.096	0.158	75.439	2.258	284.302	113.65	61.27	-27.06	13.524	-50.960	-4.606	-0.34238	-0.69995	0.06683	0.62311	20.8	13111	100
2025-5-24 8:43:12.376	WT901BLE68(801231B9234C)	-0.092	1.319	0.166	72.021	-17.639	315.247	111.60	55.23	-30.32	13.524	-50.960	-4.606	-0.39682	-0.78320	-0.01953	0.47815	20.8	13111	100
2025-5-24 8:43:12.434	WT901BLE68(801231B9234C)	0.050	1.499	0.036	61.890	-31.128	338.379	109.71	48.78	-33.54	13.524	-50.960	-4.606	-0.39682	-0.78320	-0.01953	0.47815	20.8	13111	100
2025-5-24 8:43:12.434	WT901BLE68(801231B9234C)	0.122	1.387	0.004	54.749	-10.864	347.290	108.40	42.02	-36.01	13.524	-50.960	-4.606	-0.39682	-0.78320	-0.01953	0.47815	20.8	13111	100
2025-5-24 8:43:12.463	WT901BLE68(801231B9234C)	0.023	1.400	0.088	61.462	53.528	343.323	108.50	34.91	-36.88	13.524	-50.960	-4.606	-0.39682	-0.78320	-0.01953	0.47815	20.8	13111	100
2025-5-24 8:43:12.463	WT901BLE68(801231B9234C)	-0.122	1.363	0.160	50.964	124.268	333.435	109.55	27.53	-36.05	13.524	-50.960	-4.606	-0.39682	-0.78320	-0.01953	0.47815	20.8	13111	100
2025-5-24 8:43:12.854	WT901BLE68(801231B9234C)	-0.228	1.315	0.124	36.743	170.837	322.266	110.77	19.98	-34.08	13.524	-50.960	-4.606	-0.39682	-0.78320	-0.01953	0.47815	20.8	13111	100
2025-5-24 8:43:12.854	WT901BLE68(801231B9234C)	-0.285	1.277	0.047	22.095	191.467	310.425	111.47	12.82	-33.44	13.524	-50.960	-4.606	-0.39682	-0.78320	-0.01953	0.47815	20.8	13111	100
2025-5-24 8:43:12.945	WT901BLE68(801231B9234C)	-0.381	1.249	0.032	8.301	196.716	291.687	111.68	5.95	-32.87	13.524	-50.960	-4.606	-0.39682	-0.78320	-0.01953	0.47815	20.8	13111	100
2025-5-24 8:43:12.945	WT901BLE68(801231B9234C)	-0.533	1.243	0.053	-6.287	189.392	265.076	111.50	-0.40	-32.06	13.524	-50.960	-4.606	-0.39682	-0.78320	-0.01953	0.47815	20.8	13111	100
2025-5-24 8:43:12.947	WT901BLE68(801231B9234C)	-0.632	1.248	0.054	-16.296	162.048	233.154	110.97	-5.97	-31.29	13.524	-50.960	-4.606	-0.39682	-0.78320	-0.01953	0.47815	20.8	13111	100
2025-5-24 8:43:12.947	WT901BLE68(801231B9234C)	-0.613	1.229	0.082	-21.729	118.469	200.134	110.29	-10.56	-30.89	13.524	-50.960	-4.606	-0.39682	-0.78320	-0.01953	0.47815	20.8	13111	100
2025-5-24 8:43:12.947	WT901BLE68(801231B9234C)	-0.512	1.212	0.121	-19.470	75.012	167.908	109.68	-14.13	-31.04	13.524	-50.960	-4.606	-0.39682	-0.78320	-0.01953	0.47815	20.8	13111	100
2025-5-24 8:43:12.948	WT901BLE68(801231B9234C)	-0.458	1.319	0.122	-15.198	51.819	138.184	109.25	-16.86	-31.52	13.524	-50.960	-4.606	-0.39682	-0.78320	-0.01953	0.47815	20.8	13111	100
2025-5-24 8:43:12.948	WT901BLE68(801231B9234C)	-0.439	1.372	0.118	-17.883	55.786	112.549	108.79	-19.01	-31.88	13.524	-50.960	-4.606	-0.39682	-0.78320	-0.01953	0.47815	20.8	13111	100
2025-5-24 8:43:12.948	WT901BLE68(801231B9234C)	-0.461	1.259	0.083	-19.287	80.688	89.905	108.09	-20.80	-31.68	13.524	-50.960	-4.606	-0.39682	-0.78320	-0.01953	0.47815	20.8	13111	100
2025-5-24 8:43:12.949	WT901BLE68(801231B9234C)	-0.514	1.154	0.028	-14.832	106.506	67.688	107.15	-22.31	-30.72	13.524	-50.960	-4.606	-0.39682	-0.78320	-0.01953	0.47815	20.8	13111	100
2025-5-24 8:43:12.949	WT901BLE68(801231B9234C)	-0.606	1.100	0.030	-10.559	126.953	46.936	106.01	-23.52	-29.08	13.524	-50.960	-4.606	-0.39682	-0.78320	-0.01953	0.47815	20.8	13111	100
2025-5-24 8:43:12.950	WT901BLE68(801231B9234C)	-0.712	1.233	-0.031	2.197	124.084	24.536	104.93	-24.30	-27.12	13.524	-50.960	-4.606	-0.39682	-0.78320	-0.01953	0.47815	20.8	13111	100
2025-5-24 8:43:12.950	WT901BLE68(801231B9234C)	-0.781	1.394	-0.054	1.770	96.130	5.005	104.08	-24.52	-25.41	13.524	-50.960	-4.606	-0.39682	-0.78320	-0.01953	0.47815	20.8	13111	100
2025-5-24 8:43:12.950	WT901BLE68(801231B9234C)	-0.773	1.387	-0.066	9.399	52.917	-19.226	103.57	-24.11	-24.37	13.524	-50.960	-4.606	-0.39682	-0.78320	-0.01953	0.47815	20.8	13111	100
2025-5-24 8:43:12.951	WT901BLE68(801231B9234C)	-0.620	1.469	-0.089	19.836	3.235	-50.293	103.68	-22.89	-24.19	13.524	-50.960	-4.606	-0.39682	-0.78320	-0.01953	0.47815	20.8	13111	100
2025-5-24 8:43:12.951	WT901BLE68(801231B9234C)	-0.465	1.363	-0.096	25.574	-41.321	-83.313	104.25	-20.82	-24.82	13.524	-50.960	-4.606	-0.39682	-0.78320	-0.01953	0.47815	20.8	13111	100
2025-5-24 8:43:12.951	WT901BLE68(801231B9234C)	-0.446	1.363	-0.092	35.461	-71.533	-122.192	105.13	-17.88	-25.92	13.524	-50.960	-4.606	-0.39682	-0.78320	-0.01953	0.47815	20.8	13111	100
2025-5-24 8:43:12.952	WT901BLE68(801231B9234C)	-0.422	1.354	-0.077	38.269	-93.567	-152.344	106.13	-14.19	-27.22	13.524	-50.960	-4.606	-0.39682	-0.78320	-0.01953	0.47815	20.8	13111	100
2025-5-24 8:43:12.952	WT901BLE68(801231B9234C)	-0.349	1.365	-0.093	42.786	-117.371	-175.964	107.14	-9.91	-28.72	13.524	-50.960	-4.606	-0.39682	-0.78320	-0.01953	0.47815	20.8	13111	100
2025-5-24 8:43:12.976	WT901BLE68(801231B9234C)	-0.314	1.426	-0.109	43.518	-138.428	-192.993	108.14	-5.15	-30.44	13.524	-50.960	-4.606	-0.39682	-0.78320	-0.01953	0.47815	20.8	13111	100
2025-5-24 8:43:12.976	WT901BLE68(801231B9234C)	-0.291	1.386	-0.087	37.598	-150.024	-208.435	108.91	-0.06	-32.24	-24.402	-38.318	-13.720	-0.39682	-0.78320	-0.01953	0.47815	20.8	13111	100
2025-5-24 8:43:12.977	WT901BLE68(801231B9234C)	-0.236	1.306	-0.057	32.104	-162.781	-223.694	109.40	5.34	-34.10	-24.402	-38.318	-13.720	-0.39682	-0.78320	-0.01953	0.47815	20.8	13111	100
2025-5-24 8:43:12.977	WT901BLE68(801231B9234C)	-0.170	1.286	-0.033	25.513	-173.157	-236.877	109.59	11.03	-36.07	-24.402	-38.318	-13.720	-0.39682	-0.78320	-0.01953	0.47815	20.8	13111	100
2025-5-24 8:43:12.977	WT901BLE68(801231B9234C)	-0.114	1.251	-0.020	13.977	-178.467	-248.230	109.37	16.91	-38.14	-24.402	-38.318	-13.720	-0.39682	-0.78320	-0.01953	0.47815	20.8	13111	100
2025-5-24 8:43:12.978	WT901BLE68(801231B9234C)	-0.097	1.190	-0.011	0.793	-174.561	-259.155	108.69	22.89	-40.23	-14.210	-46.844	-7.056	-0.39682	-0.78320	-0.01953	0.47815	20.8	13111	100
2025-5-24 8:43:13.36	WT901BLE68(801231B9234C)	-0.083	1.158	-0.007	-10.437	-162.964	-267.822	107.63	28.88	-42.24	-14.210	-46.844	-7.056	-0.39682	-0.78320	-0.01953	0.47815	20.8	13111	100
2025-5-24 8:43:13.36	WT901BLE68(801231B9234C)	-0.058	1.137	-0.012	-20.508	-148.376	-272.339	106.23	34.79	-44.17	-14.210	-46.844	-7.056	-0.39682	-0.78320	-0.01953	0.47815	20.8	13111	100
2025-5-24 8:43:13.66	WT901BLE68(801231B9234C)	-0.047	1.139	-0.004	-28.503	-131.897	-272.095	104.56	40.50	-45.98	-14.210	-46.844	-7.056	-0.39682	-0.78320	-0.01953	0.47815	20.8	13111	100
2025-5-24 8:43:13.66	WT901BLE68(801231B9234C)	-0.059	1.191	0.021	-35.156	-115.295	-267.212	102.69	45.94	-47.68	-14.210	-46.844	-7.056	-0.39682	-0.78320	-0.01953	0.47815	20.8	13111	100
2025-5-24 8:43:13.96	WT901BLE68(801231B9234C)	-0.050	1.276	0.021	-43.396	-102.173	-256.592	100.62	51.02	-49.22	-14.210	-46.844	-7.056	-0.39682	-0.78320	-0.01953	0.47815	20.8	13111	100
2025-5-24 8:43:13.96	WT901BLE68(801231B9234C)	-0.000	1.285	0.021	-54.932	-90.698	-243.164	98.40	55.70	-50.36	-14.210	-46.844	-7.056	-0.39682	-0.78320	-0.01953	0.47815	20.8	13111	100
2025-5-24 8:43:13.126	WT901BLE68(801231B9234C)	0.028	1.251	0.008	-62.195	-74.158	-229.065	96.32	60.05	-50.79	-14.210	-46.844	-7.056	-0.39682	-0.78320	-0.01953	0.47815	20.8	13111	100
2025-5-24 8:43:13.127	WT901BLE68(801231B9234C)	0.045	1.250	-0.027	-63.477	-51.208	-211.304	94.71	64.07	-50.48	-14.210	-46.844	-7.056	-0.39682	-0.78320	-0.01953	0.47815	20.8	13111	100
2025-5-24 8:43:13.184	WT901BLE68(801231B9234C)	0.076	1.160	-0.046	-62.256	-29.053	-188.354	93.89	67.62	-49.26	-14.210	-46.844	-7.056	-0.39682	-0.78320	-0.01953	0.47815	20.8	13111	100
2025-5-24 8:43:13.184	WT901BLE68(801231B9234C)	0.083	1.028	-0.056	-51.880	-7.568	-158.325	94.34	70.58	-46.84	-14.210	-46.844	-7.056	-0.39682	-0.78320	-0.01953	0.47815	20.8	13111	100
2025-5-24 8:43:13.216	WT901BLE68(801231B9234C)	0.075	0.928	-0.055	-41.687	11.902	-113.037	96.47	72.71	-42.96	-14.210	-46.844	-7.056	-0.33682	-0.70615	-0.14136	0.60648	20.8	13111	100
2025-5-24 8:43:13.216	WT901BLE68(801231B9234C)	-0.031	1.149	-0.076	-19.897	33.020	-52.612	100.33	73.63	-37.64	-14.210	-46.844	-7.056	-0.33682	-0.70615	-0.14136	0.60648	20.8	13111	100
2025-5-24 8:43:13.245	WT901BLE68(801231B9234C)	-0.105	1.018	-0.084	-5.615	48.218	12.817	104.89	73.08	-31.92	-14.210	-46.844	-7.056	-0.33682	-0.70615	-0.14136	0.60648	20.8	13111	100
2025-5-24 8:43:13.246	WT901BLE68(801231B9234C)	-0.232	0.827	-0.015	17.029	73.120	85.022	109.11	70.94	-26.89	-14.210	-46.844	-7.056	-0.33682	-0.70615	-0.14136	0.60648	20.8	13111	100
2025-5-24 8:43:13.304	WT901BLE68(801231B9234C)	-0.311	0.835	0.037	46.448	104.858	154.785	112.91	67.17	-22.85	-14.210	-46.844	-7.056	-0.33682	-0.70615	-0.14136	0.60648	20.8	13111	100
2025-5-24 8:43:13.304	WT901BLE68(801231B9234C)	-0.354	0.967	0.078	71.106	119.385	213.684	115.87	62.07	-20.22	-14.210	-46.844	-7.056	-0.33682	-0.70615	-0.14136	0.60648	20.8	13111	100
2025-5-24 8:43:13.333	WT901BLE68(801231B9234C)	-0.302	1.206	0.081	66.040	96.741	262.573	117.19	56.12	-19.48	-14.210	-46.844	-7.056	-0.33682	-0.70615	-0.14136	0.60648	20.8	13111	100
2025-5-24 8:43:13.333	WT901BLE68(801231B9234C)	-0.203	1.466	0.071	53.101	43.396	303.162	116.63	49.84	-20.78	-14.210	-46.844	-7.056	-0.33682	-0.70615	-0.14136	0.60648	20.8	13111	100
2025-5-24 8:43:13.394	WT901BLE68(801231B9234C)	-0.141	1.594	0.009	38.879	-2.563	324.341	114.98	43.53	-23.35	-14.210	-46.844	-7.056	-0.33682	-0.70615	-0.14136	0.60648	20.8	13111	100
2025-5-24 8:43:13.394	WT901BLE68(801231B9234C)	-0.140	1.583	-0.029	30.151	-25.940	330.200	113.17	37.27	-26.25	-14.210	-46.844	-7.056	-0.33682	-0.70615	-0.14136	0.60648	20.8	13111	100
2025-5-24 8:43:13.454	WT901BLE68(801231B9234C)	-0.043	1.428	0.005	27.588	-22.888	323.853	111.77	31.06	-28.80	-14.210	-46.844	-7.056	-0.33682	-0.70615	-0.14136	0.60648	20.8	13111	100
2025-5-24 8:43:13.454	WT901BLE68(801231B9234C)	0.049	1.239	0.084	30.884	8.362	312.927	111.05	24.87	-30.57	8.134	-50.274	-3.430	-0.33682	-0.70615	-0.14136	0.60648	20.8	13111	100
2025-5-24 8:43:13.455	WT901BLE68(801231B9234C)	-0.017	1.108	0.119	34.180	72.815	291.748	111.10	18.63	-31.07	8.134	-50.274	-3.430	-0.33682	-0.70615	-0.14136	0.60648	20.8	13111	100
2025-5-24 8:43:13.455	WT901BLE68(801231B9234C)	-0.159	1.098	0.087	32.410	133.423	268.433	111.53	12.50	-30.82	8.134	-50.274	-3.430	-0.33682	-0.70615	-0.14136	0.60648	20.8	13111	100
2025-5-24 8:43:13.784	WT901BLE68(801231B9234C)	-0.250	1.144	0.046	26.489	169.739	248.779	111.97	6.65	-30.43	8.134	-50.274	-3.430	-0.33682	-0.70615	-0.14136	0.60648	20.8	13111	100
2025-5-24 8:43:13.784	WT901BLE68(801231B9234C)	-0.378	1.186	0.037	14.771	183.716	229.004	112.20	1.07	-29.56	8.134	-50.274	-3.430	-0.33682	-0.70615	-0.14136	0.60648	20.8	13111	100
2025-5-24 8:43:13.875	WT901BLE68(801231B9234C)	-0.513	1.218	0.032	1.709	180.725	209.045	112.06	-4.10	-28.46	8.134	-50.274	-3.430	-0.33682	-0.70615	-0.14136	0.60648	20.8	13111	100
2025-5-24 8:43:13.875	WT901BLE68(801231B9234C)	-0.568	1.204	0.048	-10.376	151.001	192.383	111.59	-8.70	-27.53	8.134	-50.274	-3.430	-0.33682	-0.70615	-0.14136	0.60648	20.8	13111	100
2025-5-24 8:43:13.876	WT901BLE68(801231B9234C)	-0.570	1.175	0.097	-15.259	103.333	181.091	111.01	-12.66	-27.24	8.134	-50.274	-3.430	-0.33682	-0.70615	-0.14136	0.60648	20.8	13111	100
2025-5-24 8:43:13.876	WT901BLE68(801231B9234C)	-0.561	1.176	0.150	-16.663	65.857	170.044	110.54	-16.04	-27.64	8.134	-50.274	-3.430	-0.33682	-0.70615	-0.14136	0.60648	20.8	13111	100
2025-5-24 8:43:13.876	WT901BLE68(801231B9234C)	-0.564	1.224	0.170	-15.930	53.223	154.297	110.18	-18.95	-28.31	8.134	-50.274	-3.430	-0.33682	-0.70615	-0.14136	0.60648	20.8	13111	100
2025-5-24 8:43:13.877	WT901BLE68(801231B9234C)	-0.569	1.254	0.153	-17.212	61.462	132.385	109.75	-21.45	-28.78	8.134	-50.274	-3.430	-0.33682	-0.70615	-0.14136	0.60648	20.8	13111	100
2025-5-24 8:43:13.877	WT901BLE68(801231B9234C)	-0.570	1.191	0.099	-14.893	79.285	104.309	109.13	-23.54	-28.70	8.134	-50.274	-3.430	-0.33682	-0.70615	-0.14136	0.60648	20.8	13111	100
2025-5-24 8:43:13.878	WT901BLE68(801231B9234C)	-0.593	1.167	0.063	-10.132	91.248	72.449	108.36	-25.12	-28.04	8.134	-50.274	-3.430	-0.33682	-0.70615	-0.14136	0.60648	20.8	13111	100
2025-5-24 8:43:13.879	WT901BLE68(801231B9234C)	-0.617	1.122	0.050	-5.371	90.759	40.649	107.50	-26.08	-27.01	8.134	-50.274	-3.430	-0.33682	-0.70615	-0.14136	0.60648	20.8	13111	100
2025-5-24 8:43:13.879	WT901BLE68(801231B9234C)	-0.679	1.261	-0.013	6.165	78.979	5.676	106.80	-26.32	-25.87	8.134	-50.274	-3.430	-0.33682	-0.70615	-0.14136	0.60648	20.8	13111	100
2025-5-24 8:43:13.880	WT901BLE68(801231B9234C)	-0.727	1.371	-0.028	6.226	57.556	-25.513	106.27	-25.82	-24.89	8.134	-50.274	-3.430	-0.33682	-0.70615	-0.14136	0.60648	20.8	13111	100
2025-5-24 8:43:13.880	WT901BLE68(801231B9234C)	-0.646	1.410	-0.025	14.771	27.405	-57.129	106.03	-24.57	-24.28	8.134	-50.274	-3.430	-0.33682	-0.70615	-0.14136	0.60648	20.8	13111	100
2025-5-24 8:43:13.880	WT901BLE68(801231B9234C)	-0.509	1.433	-0.030	20.020	-5.981	-87.463	106.17	-22.54	-24.18	8.134	-50.274	-3.430	-0.33682	-0.70615	-0.14136	0.60648	20.8	13111	100
2025-5-24 8:43:13.880	WT901BLE68(801231B9234C)	-0.441	1.383	-0.043	25.208	-31.067	-118.408	106.57	-19.80	-24.46	8.134	-50.274	-3.430	-0.33682	-0.70615	-0.14136	0.60648	20.8	13111	100
2025-5-24 8:43:13.881	WT901BLE68(801231B9234C)	-0.431	1.385	-0.049	30.090	-49.438	-148.315	107.12	-16.38	-24.91	8.134	-50.274	-3.430	-0.33682	-0.70615	-0.14136	0.60648	20.8	13111	100
2025-5-24 8:43:13.881	WT901BLE68(801231B9234C)	-0.402	1.371	-0.055	33.325	-72.266	-169.128	107.77	-12.43	-25.57	-25.382	-34.888	-14.504	-0.33682	-0.70615	-0.14136	0.60648	20.8	13111	100
2025-5-24 8:43:13.905	WT901BLE68(801231B9234C)	-0.363	1.396	-0.081	39.795	-99.182	-185.669	108.54	-8.03	-26.55	-25.382	-34.888	-14.504	-0.33682	-0.70615	-0.14136	0.60648	20.8	13111	100
2025-5-24 8:43:13.905	WT901BLE68(801231B9234C)	-0.330	1.457	-0.080	40.039	-126.831	-196.594	109.35	-3.25	-27.88	-25.382	-34.888	-14.504	-0.33682	-0.70615	-0.14136	0.60648	20.8	13111	100
2025-5-24 8:43:13.906	WT901BLE68(801231B9234C)	-0.281	1.408	-0.043	34.485	-150.574	-206.787	109.98	1.83	-29.56	-25.382	-34.888	-14.504	-0.33682	-0.70615	-0.14136	0.60648	20.8	13111	100
2025-5-24 8:43:13.906	WT901BLE68(801231B9234C)	-0.227	1.313	-0.002	26.611	-168.762	-218.994	110.30	7.21	-31.49	-25.382	-34.888	-14.504	-0.33682	-0.70615	-0.14136	0.60648	20.8	13111	100
2025-5-24 8:43:13.965	WT901BLE68(801231B9234C)	-0.166	1.259	-0.000	18.188	-179.016	-230.591	110.26	12.84	-33.60	-25.382	-34.888	-14.504	-0.33682	-0.70615	-0.14136	0.60648	20.8	13111	100
2025-5-24 8:43:13.966	WT901BLE68(801231B9234C)	-0.113	1.201	-0.007	5.981	-182.434	-241.150	109.78	18.62	-35.82	-25.382	-34.888	-14.504	-0.33682	-0.70615	-0.14136	0.60648	20.8	13111	100
2025-5-24 8:43:13.997	WT901BLE68(801231B9234C)	-0.090	1.136	-0.001	-5.920	-177.063	-250.732	108.85	24.47	-38.07	-25.382	-34.888	-14.504	-0.33682	-0.70615	-0.14136	0.60648	20.8	13111	100
2025-5-24 8:43:13.997	WT901BLE68(801231B9234C)	-0.072	1.084	0.001	-17.090	-166.565	-259.094	107.51	30.31	-40.28	-25.382	-34.888	-14.504	-0.33682	-0.70615	-0.14136	0.60648	20.8	13111	100
2025-5-24 8:43:14.25	WT901BLE68(801231B9234C)	-0.052	1.063	-0.006	-25.940	-151.245	-264.038	105.84	36.06	-42.42	-25.382	-34.888	-14.504	-0.43921	-0.77435	0.09973	0.44427	20.8	13111	100
2025-5-24 8:43:14.26	WT901BLE68(801231B9234C)	-0.055	1.067	-0.009	-33.020	-133.545	-263.733	103.92	41.61	-44.47	-25.382	-34.888	-14.504	-0.43921	-0.77435	0.09973	0.44427	20.8	13111	100
2025-5-24 8:43:14.56	WT901BLE68(801231B9234C)	-0.069	1.093	0.016	-40.283	-116.760	-256.775	101.78	46.83	-46.39	-25.382	-34.888	-14.504	-0.43921	-0.77435	0.09973	0.44427	20.8	13111	100
2025-5-24 8:43:14.56	WT901BLE68(801231B9234C)	-0.068	1.165	0.022	-47.241	-104.065	-242.737	99.42	51.65	-48.14	-25.382	-34.888	-14.504	-0.43921	-0.77435	0.09973	0.44427	20.8	13111	100
2025-5-24 8:43:14.114	WT901BLE68(801231B9234C)	-0.053	1.237	0.011	-57.434	-91.003	-223.083	96.99	55.97	-49.38	-25.382	-34.888	-14.504	-0.43921	-0.77435	0.09973	0.44427	20.8	13111	100
2025-5-24 8:43:14.114	WT901BLE68(801231B9234C)	-0.021	1.270	-0.006	-67.322	-70.923	-201.050	94.67	59.83	-49.98	-25.382	-34.888	-14.504	-0.43921	-0.77435	0.09973	0.44427	20.8	13111	100
2025-5-24 8:43:14.143	WT901BLE68(801231B9234C)	0.013	1.256	-0.035	-74.707	-42.664	-178.467	92.79	63.21	-49.78	-25.382	-34.888	-14.504	-0.43921	-0.77435	0.09973	0.44427	20.8	13111	100
2025-5-24 8:43:14.143	WT901BLE68(801231B9234C)	0.034	1.184	-0.063	-76.538	-8.362	-155.457	91.97	66.09	-48.29	-25.382	-34.888	-14.504	-0.43921	-0.77435	0.09973	0.44427	20.8	13111	100
2025-5-24 8:43:14.177	WT901BLE68(801231B9234C)	0.003	1.130	-0.084	-69.275	24.719	-126.831	92.91	68.38	-44.98	-25.382	-34.888	-14.504	-0.43921	-0.77435	0.09973	0.44427	20.8	13111	100
2025-5-24 8:43:14.177	WT901BLE68(801231B9234C)	-0.053	1.058	-0.088	-57.800	51.208	-95.276	95.84	69.97	-39.79	-25.382	-34.888	-14.504	-0.43921	-0.77435	0.09973	0.44427	20.8	13111	100
2025-5-24 8:43:14.234	WT901BLE68(801231B9234C)	-0.113	1.076	-0.080	-37.354	68.359	-51.270	100.44	70.60	-33.23	24.892	-42.728	-9.996	-0.43921	-0.77435	0.09973	0.44427	20.8	13111	100
2025-5-24 8:43:14.234	WT901BLE68(801231B9234C)	-0.097	1.017	-0.068	-23.743	74.829	-0.977	105.37	70.05	-26.67	24.892	-42.728	-9.996	-0.43921	-0.77435	0.09973	0.44427	20.8	13111	100
2025-5-24 8:43:14.263	WT901BLE68(801231B9234C)	-0.232	1.181	-0.080	-4.944	75.928	55.664	109.34	68.29	-21.38	24.892	-42.728	-9.996	-0.43921	-0.77435	0.09973	0.44427	20.8	13111	100
2025-5-24 8:43:14.263	WT901BLE68(801231B9234C)	-0.267	0.763	0.006	18.799	74.402	114.136	112.02	65.36	-17.95	24.892	-42.728	-9.996	-0.43921	-0.77435	0.09973	0.44427	20.8	13111	100
2025-5-24 8:43:14.293	WT901BLE68(801231B9234C)	-0.247	0.744	0.080	47.180	69.702	166.138	113.61	61.47	-16.23	24.892	-42.728	-9.996	-0.43921	-0.77435	0.09973	0.44427	20.8	13111	100
2025-5-24 8:43:14.293	WT901BLE68(801231B9234C)	-0.259	0.890	0.123	69.336	55.054	216.797	114.32	56.80	-15.99	24.892	-42.728	-9.996	-0.43921	-0.77435	0.09973	0.44427	20.8	13111	100
2025-5-24 8:43:14.384	WT901BLE68(801231B9234C)	-0.313	1.142	0.155	85.327	40.588	259.277	114.54	51.42	-16.87	24.892	-42.728	-9.996	-0.43921	-0.77435	0.09973	0.44427	20.8	13111	100
2025-5-24 8:43:14.384	WT901BLE68(801231B9234C)	-0.280	1.485	0.120	77.454	9.827	297.302	114.17	45.59	-18.70	24.892	-42.728	-9.996	-0.43921	-0.77435	0.09973	0.44427	20.8	13111	100
2025-5-24 8:43:14.418	WT901BLE68(801231B9234C)	-0.241	1.563	0.093	66.223	-23.804	324.768	113.10	39.46	-21.38	24.892	-42.728	-9.996	-0.43921	-0.77435	0.09973	0.44427	20.8	13111	100
2025-5-24 8:43:14.419	WT901BLE68(801231B9234C)	-0.178	1.528	0.049	63.354	-44.556	331.726	112.07	33.27	-24.34	24.892	-42.728	-9.996	-0.43921	-0.77435	0.09973	0.44427	20.8	13111	100
2025-5-24 8:43:14.419	WT901BLE68(801231B9234C)	-0.083	1.378	0.057	62.744	-53.589	325.256	111.34	27.22	-27.23	24.892	-42.728	-9.996	-0.43921	-0.77435	0.09973	0.44427	20.8	13111	100
2025-5-24 8:43:14.420	WT901BLE68(801231B9234C)	-0.055	1.228	0.123	59.387	-39.185	306.641	111.08	21.40	-29.70	24.892	-42.728	-9.996	-0.49582	-0.81238	0.11023	0.28629	20.8	13111	100
2025-5-24 8:43:14.476	WT901BLE68(801231B9234C)	-0.064	1.068	0.196	53.467	-5.554	280.701	111.10	16.14	-32.71	24.892	-42.728	-9.996	-0.49582	-0.81238	0.11023	0.28629	20.8	13111	100
2025-5-24 8:43:14.476	WT901BLE68(801231B9234C)	-0.072	0.948	0.155	53.711	33.325	256.470	111.49	11.22	-35.23	24.892	-42.728	-9.996	-0.49582	-0.81238	0.11023	0.28629	20.8	13111	100
2025-5-24 8:43:14.894	WT901BLE68(801231B9234C)	-0.162	0.929	0.135	55.115	69.458	231.506	112.20	6.51	-36.83	24.892	-42.728	-9.996	-0.49582	-0.81238	0.11023	0.28629	20.8	13111	100
2025-5-24 8:43:14.895	WT901BLE68(801231B9234C)	-0.311	1.006	0.177	51.086	94.788	202.271	112.99	2.15	-37.69	24.892	-42.728	-9.996	-0.49582	-0.81238	0.11023	0.28629	20.8	13111	100
2025-5-24 8:43:14.895	WT901BLE68(801231B9234C)	-0.417	1.118	0.236	40.710	104.858	178.101	113.64	-1.80	-38.05	24.892	-42.728	-9.996	-0.49582	-0.81238	0.11023	0.28629	20.8	13111	100
2025-5-24 8:43:14.895	WT901BLE68(801231B9234C)	-0.467	1.173	0.276	29.724	97.778	159.485	114.05	-5.32	-38.27	24.892	-42.728	-9.996	-0.49582	-0.81238	0.11023	0.28629	20.8	13111	100
2025-5-24 8:43:14.896	WT901BLE68(801231B9234C)	-0.463	1.185	0.300	21.179	83.801	145.630	114.27	-8.40	-38.57	24.892	-42.728	-9.996	-0.49582	-0.81238	0.11023	0.28629	20.8	13111	100
2025-5-24 8:43:14.896	WT901BLE68(801231B9234C)	-0.457	1.210	0.311	14.343	75.623	134.949	114.36	-11.12	-38.97	24.892	-42.728	-9.996	-0.49582	-0.81238	0.11023	0.28629	20.8	13111	100
2025-5-24 8:43:14.897	WT901BLE68(801231B9234C)	-0.493	1.266	0.296	7.019	81.909	122.131	114.28	-13.60	-39.23	24.892	-42.728	-9.996	-0.49582	-0.81238	0.11023	0.28629	20.8	13111	100
2025-5-24 8:43:14.897	WT901BLE68(801231B9234C)	-0.550	1.186	0.253	-0.916	95.215	104.431	113.92	-15.86	-39.09	24.892	-42.728	-9.996	-0.49582	-0.81238	0.11023	0.28629	20.8	13111	100
2025-5-24 8:43:14.898	WT901BLE68(801231B9234C)	-0.598	1.139	0.204	-0.122	106.506	78.003	113.37	-17.76	-38.47	24.892	-42.728	-9.996	-0.49582	-0.81238	0.11023	0.28629	20.8	13111	100
2025-5-24 8:43:14.898	WT901BLE68(801231B9234C)	-0.623	1.121	0.189	-0.488	107.727	46.570	112.69	-19.13	-37.43	24.892	-42.728	-9.996	-0.49582	-0.81238	0.11023	0.28629	20.8	13111	100
2025-5-24 8:43:14.898	WT901BLE68(801231B9234C)	-0.634	1.251	0.130	6.226	92.407	13.245	112.03	-19.79	-36.25	24.892	-42.728	-9.996	-0.49582	-0.81238	0.11023	0.28629	20.8	13111	100
2025-5-24 8:43:14.899	WT901BLE68(801231B9234C)	-0.698	1.449	0.105	2.441	68.115	-18.799	111.46	-19.65	-35.21	24.892	-42.728	-9.996	-0.49582	-0.81238	0.11023	0.28629	20.8	13111	100
2025-5-24 8:43:14.899	WT901BLE68(801231B9234C)	-0.669	1.491	0.118	-2.930	35.828	-50.049	110.90	-18.71	-34.48	24.892	-42.728	-9.996	-0.49582	-0.81238	0.11023	0.28629	20.8	13111	100
2025-5-24 8:43:14.899	WT901BLE68(801231B9234C)	-0.506	1.509	0.071	-2.380	0.793	-81.116	110.48	-16.94	-34.18	24.892	-42.728	-9.996	-0.49582	-0.81238	0.11023	0.28629	20.8	13111	100
2025-5-24 8:43:14.900	WT901BLE68(801231B9234C)	-0.390	1.473	0.006	-3.418	-23.315	-113.159	110.19	-14.41	-34.23	24.892	-42.728	-9.996	-0.49582	-0.81238	0.11023	0.28629	20.8	13111	100
2025-5-24 8:43:14.900	WT901BLE68(801231B9234C)	-0.351	1.490	-0.024	-1.587	-33.691	-146.057	109.94	-11.20	-34.33	24.892	-42.728	-9.996	-0.49582	-0.81238	0.11023	0.28629	20.8	13111	100
2025-5-24 8:43:14.901	WT901BLE68(801231B9234C)	-0.324	1.495	-0.038	-0.488	-41.199	-168.823	109.73	-7.47	-34.40	24.892	-42.728	-9.996	-0.49582	-0.81238	0.11023	0.28629	20.8	13111	100
2025-5-24 8:43:14.901	WT901BLE68(801231B9234C)	-0.313	1.466	-0.040	2.075	-52.002	-187.744	109.57	-3.38	-34.52	24.892	-42.728	-9.996	-0.49582	-0.81238	0.11023	0.28629	20.8	13111	100
2025-5-24 8:43:14.925	WT901BLE68(801231B9234C)	-0.275	1.503	-0.023	4.578	-64.514	-200.623	109.49	1.02	-34.78	24.892	-42.728	-9.996	-0.49582	-0.81238	0.11023	0.28629	20.8	13111	100
2025-5-24 8:43:14.925	WT901BLE68(801231B9234C)	-0.225	1.450	0.007	0.305	-76.172	-209.412	109.36	5.63	-35.20	24.892	-42.728	-9.996	-0.49582	-0.81238	0.11023	0.28629	20.8	13111	100
2025-5-24 8:43:14.926	WT901BLE68(801231B9234C)	-0.203	1.307	0.042	-4.089	-79.468	-221.069	109.11	10.41	-35.72	24.892	-42.728	-9.996	-0.49582	-0.81238	0.11023	0.28629	20.8	13111	100
2025-5-24 8:43:14.926	WT901BLE68(801231B9234C)	-0.200	1.211	0.060	-5.737	-79.041	-233.215	108.79	15.36	-36.18	24.892	-42.728	-9.996	-0.49582	-0.81238	0.11023	0.28629	20.8	13111	100
2025-5-24 8:43:14.956	WT901BLE68(801231B9234C)	-0.181	1.148	0.061	-7.874	-81.238	-243.591	108.42	20.46	-36.63	-13.916	-44.198	-4.998	-0.49185	-0.79202	0.14450	0.33136	20.8	13111	100
2025-5-24 8:43:14.956	WT901BLE68(801231B9234C)	-0.164	1.075	0.055	-12.085	-92.041	-251.465	107.90	25.71	-37.26	-13.916	-44.198	-4.998	-0.49185	-0.79202	0.14450	0.33136	20.8	13111	100
2025-5-24 8:43:14.985	WT901BLE68(801231B9234C)	-0.146	1.017	0.053	-16.846	-105.347	-259.094	107.11	31.11	-38.19	-13.916	-44.198	-4.998	-0.49185	-0.79202	0.14450	0.33136	20.8	13111	100
2025-5-24 8:43:14.986	WT901BLE68(801231B9234C)	-0.116	0.999	0.032	-22.827	-117.310	-264.465	105.95	36.63	-39.52	-13.916	-44.198	-4.998	-0.49185	-0.79202	0.14450	0.33136	20.8	13111	100
2025-5-24 8:43:15.44	WT901BLE68(801231B9234C)	-0.088	1.011	0.017	-29.785	-123.352	-264.954	104.30	42.14	-41.26	0.882	-48.412	-4.312	-0.49185	-0.79202	0.14450	0.33136	20.8	13111	100
2025-5-24 8:43:15.44	WT901BLE68(801231B9234C)	-0.068	1.036	0.013	-37.781	-121.338	-260.681	102.13	47.48	-43.34	0.882	-48.412	-4.312	-0.49185	-0.79202	0.14450	0.33136	20.8	13111	100
2025-5-24 8:43:15.73	WT901BLE68(801231B9234C)	-0.046	1.077	0.027	-45.349	-113.586	-250.977	99.55	52.48	-45.47	0.882	-48.412	-4.312	-0.49185	-0.79202	0.14450	0.33136	20.8	13111	100
2025-5-24 8:43:15.73	WT901BLE68(801231B9234C)	-0.027	1.114	0.030	-52.490	-100.464	-235.718	96.92	57.06	-46.98	0.882	-48.412	-4.312	-0.49185	-0.79202	0.14450	0.33136	20.8	13111	100
2025-5-24 8:43:15.104	WT901BLE68(801231B9234C)	-0.013	1.124	0.020	-58.533	-79.895	-217.529	94.47	61.25	-47.82	0.882	-48.412	-4.312	-0.49185	-0.79202	0.14450	0.33136	20.8	13111	100
2025-5-24 8:43:15.104	WT901BLE68(801231B9234C)	-0.005	1.122	0.004	-60.669	-51.514	-195.618	92.50	64.98	-47.95	0.882	-48.412	-4.312	-0.49185	-0.79202	0.14450	0.33136	20.8	13111	100
2025-5-24 8:43:15.163	WT901BLE68(801231B9234C)	-0.011	1.066	-0.005	-60.303	-19.348	-170.227	91.61	68.19	-46.85	0.882	-48.412	-4.312	-0.49185	-0.79202	0.14450	0.33136	20.8	13111	100
2025-5-24 8:43:15.163	WT901BLE68(801231B9234C)	-0.044	0.993	-0.020	-54.260	9.033	-140.442	92.41	70.78	-44.03	0.882	-48.412	-4.312	-0.49185	-0.79202	0.14450	0.33136	20.8	13111	100
2025-5-24 8:43:15.193	WT901BLE68(801231B9234C)	-0.104	0.919	-0.021	-44.189	30.212	-103.210	95.15	72.61	-39.38	0.882	-48.412	-4.312	-0.49185	-0.79202	0.14450	0.33136	20.8	13111	100
2025-5-24 8:43:15.194	WT901BLE68(801231B9234C)	-0.166	0.894	-0.006	-27.527	44.128	-53.833	99.43	73.41	-33.42	0.882	-48.412	-4.312	-0.49185	-0.79202	0.14450	0.33136	20.8	13111	100
2025-5-24 8:43:15.223	WT901BLE68(801231B9234C)	-0.192	0.931	-0.019	-11.780	48.706	5.371	103.98	72.95	-27.55	0.882	-48.412	-4.312	-0.49185	-0.79202	0.14450	0.33136	20.8	13111	100
2025-5-24 8:43:15.223	WT901BLE68(801231B9234C)	-0.225	0.804	-0.002	1.709	51.392	67.932	107.39	71.21	-23.10	0.882	-48.412	-4.312	-0.37918	-0.71716	-0.20013	0.54929	20.8	13111	100
2025-5-24 8:43:15.284	WT901BLE68(801231B9234C)	-0.247	0.714	0.009	28.687	58.777	132.446	109.67	68.17	-20.27	0.882	-48.412	-4.312	-0.37918	-0.71716	-0.20013	0.54929	20.8	13111	100
2025-5-24 8:43:15.284	WT901BLE68(801231B9234C)	-0.233	0.732	0.050	55.847	64.514	190.735	111.21	63.95	-18.79	0.882	-48.412	-4.312	-0.37918	-0.71716	-0.20013	0.54929	20.8	13111	100
2025-5-24 8:43:15.376	WT901BLE68(801231B9234C)	-0.241	0.884	0.110	79.773	62.744	241.638	112.21	58.76	-18.47	0.882	-48.412	-4.312	-0.37918	-0.71716	-0.20013	0.54929	20.8	13111	100
2025-5-24 8:43:15.376	WT901BLE68(801231B9234C)	-0.298	1.153	0.157	91.125	52.673	284.058	112.77	52.83	-19.04	0.882	-48.412	-4.312	-0.37918	-0.71716	-0.20013	0.54929	20.8	13111	100
2025-5-24 8:43:15.377	WT901BLE68(801231B9234C)	-0.302	1.478	0.161	86.914	26.794	318.970	112.76	46.41	-20.51	0.882	-48.412	-4.312	-0.37918	-0.71716	-0.20013	0.54929	20.8	13111	100
2025-5-24 8:43:15.377	WT901BLE68(801231B9234C)	-0.232	1.730	0.135	74.097	-8.911	345.215	112.13	39.73	-22.80	0.882	-48.412	-4.312	-0.37918	-0.71716	-0.20013	0.54929	20.8	13111	100
2025-5-24 8:43:15.405	WT901BLE68(801231B9234C)	-0.190	1.777	0.059	64.148	-41.748	354.187	111.21	33.04	-25.62	0.882	-48.412	-4.312	-0.37918	-0.71716	-0.20013	0.54929	20.8	13111	100
2025-5-24 8:43:15.405	WT901BLE68(801231B9234C)	-0.094	1.626	0.028	59.998	-51.514	343.201	110.51	26.56	-28.45	0.882	-48.412	-4.312	-0.37918	-0.71716	-0.20013	0.54929	20.8	13111	100
2025-5-24 8:43:15.436	WT901BLE68(801231B9234C)	-0.027	1.397	0.075	63.293	-30.579	322.815	110.39	20.35	-30.70	7.448	-47.922	-2.352	-0.37918	-0.71716	-0.20013	0.54929	20.8	13111	100
2025-5-24 8:43:15.436	WT901BLE68(801231B9234C)	-0.095	1.218	0.156	62.195	15.808	290.771	110.76	14.73	-33.46	7.448	-47.922	-2.352	-0.37918	-0.71716	-0.20013	0.54929	20.8	13111	100
2025-5-24 8:43:15.914	WT901BLE68(801231B9234C)	-0.182	1.083	0.184	58.716	63.782	254.395	111.45	9.57	-35.44	7.448	-47.922	-2.352	-0.37918	-0.71716	-0.20013	0.54929	20.8	13111	100
2025-5-24 8:43:15.915	WT901BLE68(801231B9234C)	-0.255	1.032	0.163	54.749	91.614	219.299	112.30	4.83	-36.49	7.448	-47.922	-2.352	-0.37918	-0.71716	-0.20013	0.54929	20.8	13111	100
2025-5-24 8:43:15.915	WT901BLE68(801231B9234C)	-0.291	1.043	0.179	46.265	101.196	182.617	113.05	0.71	-36.99	7.448	-47.922	-2.352	-0.37918	-0.71716	-0.20013	0.54929	20.8	13111	100
2025-5-24 8:43:15.915	WT901BLE68(801231B9234C)	-0.325	1.085	0.190	37.720	104.126	155.029	113.63	-2.83	-37.16	7.448	-47.922	-2.352	-0.37918	-0.71716	-0.20013	0.54929	20.8	13111	100
2025-5-24 8:43:15.916	WT901BLE68(801231B9234C)	-0.396	1.131	0.211	26.978	108.032	133.789	113.98	-5.93	-37.07	7.448	-47.922	-2.352	-0.37918	-0.71716	-0.20013	0.54929	20.8	13111	100
2025-5-24 8:43:15.916	WT901BLE68(801231B9234C)	-0.415	1.126	0.265	14.465	107.422	122.253	114.02	-8.72	-36.82	7.448	-47.922	-2.352	-0.37918	-0.71716	-0.20013	0.54929	20.8	13111	100
2025-5-24 8:43:15.917	WT901BLE68(801231B9234C)	-0.436	1.115	0.302	4.639	106.628	121.155	113.82	-11.37	-36.54	7.448	-47.922	-2.352	-0.37918	-0.71716	-0.20013	0.54929	20.8	13111	100
2025-5-24 8:43:15.917	WT901BLE68(801231B9234C)	-0.479	1.117	0.299	-5.005	116.028	119.934	113.37	-14.00	-36.11	7.448	-47.922	-2.352	-0.37918	-0.71716	-0.20013	0.54929	20.8	13111	100
2025-5-24 8:43:15.918	WT901BLE68(801231B9234C)	-0.512	1.166	0.255	-12.939	128.540	112.854	112.63	-16.60	-35.35	7.448	-47.922	-2.352	-0.37918	-0.71716	-0.20013	0.54929	20.8	13111	100
2025-5-24 8:43:15.918	WT901BLE68(801231B9234C)	-0.599	1.201	0.194	-17.578	141.602	95.154	111.59	-19.01	-34.16	7.448	-47.922	-2.352	-0.37918	-0.71716	-0.20013	0.54929	20.8	13111	100
2025-5-24 8:43:15.918	WT901BLE68(801231B9234C)	-0.595	1.231	0.167	-17.944	150.696	61.523	110.29	-20.91	-32.42	7.448	-47.922	-2.352	-0.37918	-0.71716	-0.20013	0.54929	20.8	13111	100
2025-5-24 8:43:15.918	WT901BLE68(801231B9234C)	-0.468	1.154	0.181	-17.578	150.818	25.818	108.81	-22.09	-30.24	7.448	-47.922	-2.352	-0.37918	-0.71716	-0.20013	0.54929	20.8	13111	100
2025-5-24 8:43:15.919	WT901BLE68(801231B9234C)	-0.377	1.144	0.150	-7.690	140.991	-14.221	107.35	-22.46	-27.87	7.448	-47.922	-2.352	-0.37918	-0.71716	-0.20013	0.54929	20.8	13111	100
2025-5-24 8:43:15.919	WT901BLE68(801231B9234C)	-0.432	1.391	0.128	-6.409	132.263	-52.612	106.05	-21.92	-25.43	7.448	-47.922	-2.352	-0.37918	-0.71716	-0.20013	0.54929	20.8	13111	100
2025-5-24 8:43:15.920	WT901BLE68(801231B9234C)	-0.494	1.384	0.083	-7.568	126.343	-80.078	104.69	-20.72	-22.95	7.448	-47.922	-2.352	-0.37918	-0.71716	-0.20013	0.54929	20.8	13111	100
2025-5-24 8:43:15.920	WT901BLE68(801231B9234C)	-0.449	1.338	0.041	-3.601	107.239	-105.835	103.56	-18.91	-20.65	7.448	-47.922	-2.352	-0.37918	-0.71716	-0.20013	0.54929	20.8	13111	100
2025-5-24 8:43:15.920	WT901BLE68(801231B9234C)	-0.387	1.285	0.015	6.287	81.360	-128.662	102.83	-16.51	-18.78	7.448	-47.922	-2.352	-0.37918	-0.71716	-0.20013	0.54929	20.8	13111	100
2025-5-24 8:43:15.921	WT901BLE68(801231B9234C)	-0.390	1.315	0.024	14.343	53.894	-152.344	102.51	-13.55	-17.37	7.448	-47.922	-2.352	-0.37918	-0.71716	-0.20013	0.54929	20.8	13111	100
2025-5-24 8:43:15.946	WT901BLE68(801231B9234C)	-0.393	1.302	0.039	20.325	17.639	-169.678	102.54	-10.08	-16.54	7.448	-47.922	-2.352	-0.37918	-0.71716	-0.20013	0.54929	20.8	13111	100
2025-5-24 8:43:15.946	WT901BLE68(801231B9234C)	-0.379	1.243	0.005	30.518	-24.719	-175.720	102.91	-6.27	-16.44	7.448	-47.922	-2.352	-0.37918	-0.71716	-0.20013	0.54929	20.8	13111	100
2025-5-24 8:43:15.946	WT901BLE68(801231B9234C)	-0.380	1.291	0.005	41.748	-68.359	-172.974	103.61	-2.31	-17.13	7.448	-47.922	-2.352	-0.37918	-0.71716	-0.20013	0.54929	20.8	13111	100
2025-5-24 8:43:15.947	WT901BLE68(801231B9234C)	-0.338	1.299	0.076	40.100	-108.093	-166.443	104.34	1.71	-18.59	7.448	-47.922	-2.352	-0.37918	-0.71716	-0.20013	0.54929	20.8	13111	100
2025-5-24 8:43:15.947	WT901BLE68(801231B9234C)	-0.153	1.160	0.115	33.386	-142.334	-161.560	104.83	5.76	-20.72	7.448	-47.922	-2.352	-0.37918	-0.71716	-0.20013	0.54929	20.8	13111	100
2025-5-24 8:43:15.947	WT901BLE68(801231B9234C)	-0.132	0.819	0.104	13.855	-152.405	-180.908	104.32	18.46	-28.58	-9.212	-43.512	-12.250	-0.37918	-0.71716	-0.20013	0.54929	20.8	13111	100
2025-5-24 8:43:16.3	WT901BLE68(801231B9234C)	-0.123	0.792	0.069	7.874	-143.616	-187.317	103.57	22.79	-31.08	-9.212	-43.512	-12.250	-0.37918	-0.71716	-0.20013	0.54929	20.8	13111	100
2025-5-24 8:43:16.4	WT901BLE68(801231B9234C)	-0.119	0.798	0.035	2.258	-132.385	-190.918	102.61	27.06	-33.46	-9.212	-43.512	-12.250	-0.37918	-0.71716	-0.20013	0.54929	20.8	13111	100
2025-5-24 8:43:16.34	WT901BLE68(801231B9234C)	-0.119	0.823	0.027	-4.883	-121.460	-191.711	101.43	31.23	-35.72	-9.212	-43.512	-12.250	-0.37918	-0.71716	-0.20013	0.54929	20.8	13111	100
