time	DeviceName	AccX(g)	AccY(g)	AccZ(g)	AsX(°/s)	AsY(°/s)	AsZ(°/s)	AngleX(°)	AngleY(°)	AngleZ(°)	HX(uT)	HY(uT)	HZ(uT)	Q0()	Q1()	Q2()	Q3()	Temperature(°C)	Version()	Battery level(%)
2025-5-24 9:5:33.128	WT901BLE68(801231B9234C)	-0.638	1.084	0.235	-2.075	-69.214	-34.119	91.75	-19.13	59.01	38.612	-30.184	-21.854	-0.54843	-0.65475	-0.27692	-0.44012	16.4	13111	100
2025-5-24 9:5:33.128	WT901BLE68(801231B9234C)	-0.509	1.274	0.255	-4.578	-110.962	-76.660	92.85	-17.51	55.69	38.612	-30.184	-21.854	-0.54843	-0.65475	-0.27692	-0.44012	16.4	13111	100
2025-5-24 9:5:33.150	WT901BLE68(801231B9234C)	-0.414	1.452	0.183	-9.094	-141.113	-103.943	93.99	-15.12	51.72	38.612	-30.184	-21.854	-0.54843	-0.65475	-0.27692	-0.44012	16.4	13111	100
2025-5-24 9:5:33.150	WT901BLE68(801231B9234C)	-0.334	1.522	0.183	-22.766	-152.893	-133.545	94.73	-12.09	47.55	10.290	-54.292	-10.192	-0.54843	-0.65475	-0.27692	-0.44012	16.4	13111	100
2025-5-24 9:5:33.181	WT901BLE68(801231B9234C)	-0.242	1.529	0.144	-33.569	-145.508	-155.579	94.98	-8.53	43.54	10.290	-54.292	-10.192	-0.54843	-0.65475	-0.27692	-0.44012	16.4	13111	100
2025-5-24 9:5:33.181	WT901BLE68(801231B9234C)	-0.208	1.509	0.104	-46.143	-126.831	-175.354	94.66	-4.63	39.98	10.290	-54.292	-10.192	-0.54843	-0.65475	-0.27692	-0.44012	16.4	13111	100
2025-5-24 9:5:33.240	WT901BLE68(801231B9234C)	-0.226	1.498	0.059	-56.030	-101.074	-194.641	93.80	-0.42	37.10	10.290	-54.292	-10.192	-0.54843	-0.65475	-0.27692	-0.44012	16.4	13111	100
2025-5-24 9:5:33.240	WT901BLE68(801231B9234C)	-0.251	1.498	0.031	-59.631	-78.613	-207.825	92.57	3.97	35.06	10.290	-54.292	-10.192	-0.54843	-0.65475	-0.27692	-0.44012	16.4	13111	100
2025-5-24 9:5:33.270	WT901BLE68(801231B9234C)	-0.298	1.492	0.016	-60.425	-65.491	-213.684	91.17	8.38	33.64	10.290	-54.292	-10.192	-0.54843	-0.65475	-0.27692	-0.44012	16.4	13111	100
2025-5-24 9:5:33.270	WT901BLE68(801231B9234C)	-0.340	1.479	0.005	-59.082	-66.589	-212.646	89.69	12.72	32.37	10.290	-54.292	-10.192	-0.54843	-0.65475	-0.27692	-0.44012	16.4	13111	100
2025-5-24 9:5:33.301	WT901BLE68(801231B9234C)	-0.359	1.528	-0.016	-56.580	-77.332	-204.956	88.13	16.86	30.89	10.290	-54.292	-10.192	-0.54843	-0.65475	-0.27692	-0.44012	16.4	13111	100
2025-5-24 9:5:33.301	WT901BLE68(801231B9234C)	-0.335	1.585	-0.050	-56.519	-92.163	-190.552	86.39	20.65	29.05	10.290	-54.292	-10.192	-0.54843	-0.65475	-0.27692	-0.44012	16.4	13111	100
2025-5-24 9:5:33.360	WT901BLE68(801231B9234C)	-0.281	1.554	-0.073	-60.669	-102.356	-176.453	84.35	24.04	26.83	10.290	-54.292	-10.192	-0.74374	-0.59558	-0.30301	-0.01337	16.4	13111	100
2025-5-24 9:5:33.360	WT901BLE68(801231B9234C)	-0.198	1.450	-0.091	-63.599	-102.112	-167.664	82.06	27.06	24.41	10.290	-54.292	-10.192	-0.74374	-0.59558	-0.30301	-0.01337	16.4	13111	100
2025-5-24 9:5:33.390	WT901BLE68(801231B9234C)	-0.130	1.327	-0.104	-65.063	-89.661	-165.039	79.66	29.89	22.02	10.290	-54.292	-10.192	-0.74374	-0.59558	-0.30301	-0.01337	16.4	13111	100
2025-5-24 9:5:33.390	WT901BLE68(801231B9234C)	-0.104	1.220	-0.080	-66.284	-70.740	-168.823	77.27	32.68	19.86	10.290	-54.292	-10.192	-0.74374	-0.59558	-0.30301	-0.01337	16.4	13111	100
2025-5-24 9:5:33.426	WT901BLE68(801231B9234C)	-0.094	1.116	-0.066	-66.650	-50.232	-175.903	74.93	35.55	17.96	10.290	-54.292	-10.192	-0.74374	-0.59558	-0.30301	-0.01337	16.4	13111	100
2025-5-24 9:5:33.427	WT901BLE68(801231B9234C)	-0.104	1.026	-0.050	-64.697	-28.992	-183.411	72.70	38.58	16.34	10.290	-54.292	-10.192	-0.74374	-0.59558	-0.30301	-0.01337	16.4	13111	100
2025-5-24 9:5:33.480	WT901BLE68(801231B9234C)	-0.130	0.970	-0.043	-60.852	-9.705	-189.148	70.64	41.76	14.97	10.290	-54.292	-10.192	-0.74374	-0.59558	-0.30301	-0.01337	16.4	13111	100
2025-5-24 9:5:33.480	WT901BLE68(801231B9234C)	-0.155	0.935	-0.020	-57.129	5.005	-190.857	68.75	45.04	13.81	10.290	-54.292	-10.192	-0.74374	-0.59558	-0.30301	-0.01337	16.4	13111	100
2025-5-24 9:5:33.511	WT901BLE68(801231B9234C)	-0.162	0.886	-0.007	-54.626	9.155	-188.904	66.88	48.30	12.68	10.290	-54.292	-10.192	-0.74374	-0.59558	-0.30301	-0.01337	16.4	13111	100
2025-5-24 9:5:33.511	WT901BLE68(801231B9234C)	-0.160	0.812	0.005	-52.734	7.080	-185.303	64.85	51.43	11.35	10.290	-54.292	-10.192	-0.74374	-0.59558	-0.30301	-0.01337	16.4	13111	100
2025-5-24 9:5:33.541	WT901BLE68(801231B9234C)	-0.163	0.755	0.008	-48.523	3.418	-180.115	62.62	54.38	9.74	10.290	-54.292	-10.192	-0.74374	-0.59558	-0.30301	-0.01337	16.4	13111	100
2025-5-24 9:5:33.541	WT901BLE68(801231B9234C)	-0.161	0.726	0.005	-42.542	-1.160	-173.279	60.16	57.12	7.81	41.552	-17.738	-29.008	-0.74374	-0.59558	-0.30301	-0.01337	16.4	13111	100
2025-5-24 9:5:33.600	WT901BLE68(801231B9234C)	-0.148	0.733	0.014	-35.583	-5.554	-161.804	57.51	59.57	5.56	41.552	-17.738	-29.008	-0.74374	-0.59558	-0.30301	-0.01337	16.4	13111	100
2025-5-24 9:5:33.600	WT901BLE68(801231B9234C)	-0.143	0.771	0.026	-29.602	-8.911	-144.165	54.83	61.64	3.18	41.552	-17.738	-29.008	-0.74374	-0.59558	-0.30301	-0.01337	16.4	13111	100
2025-5-24 9:5:33.634	WT901BLE68(801231B9234C)	-0.135	0.768	0.050	-27.832	-11.780	-119.873	52.28	63.25	0.92	41.552	-17.738	-29.008	-0.74374	-0.59558	-0.30301	-0.01337	16.4	13111	100
2025-5-24 9:5:33.634	WT901BLE68(801231B9234C)	-0.132	0.704	0.074	-23.499	-13.306	-87.646	50.20	64.31	-0.82	41.552	-17.738	-29.008	-0.74374	-0.59558	-0.30301	-0.01337	16.4	13111	100
2025-5-24 9:5:33.661	WT901BLE68(801231B9234C)	-0.152	0.701	0.091	-10.559	-8.728	-44.983	49.26	64.78	-1.50	41.552	-17.738	-29.008	-0.74374	-0.59558	-0.30301	-0.01337	16.4	13111	100
2025-5-24 9:5:33.661	WT901BLE68(801231B9234C)	-0.185	0.751	0.114	4.089	0.488	10.681	50.17	64.55	-0.43	41.552	-17.738	-29.008	-0.74374	-0.59558	-0.30301	-0.01337	16.4	13111	100
2025-5-24 9:5:33.727	WT901BLE68(801231B9234C)	-0.193	0.794	0.113	21.545	13.733	75.562	53.20	63.48	2.66	41.552	-17.738	-29.008	-0.74374	-0.59558	-0.30301	-0.01337	16.4	13111	100
2025-5-24 9:5:33.728	WT901BLE68(801231B9234C)	-0.216	0.793	0.097	42.664	36.499	144.226	58.24	61.40	7.65	41.552	-17.738	-29.008	-0.74374	-0.59558	-0.30301	-0.01337	16.4	13111	100
2025-5-24 9:5:33.750	WT901BLE68(801231B9234C)	-0.297	0.735	0.108	66.650	73.853	201.782	64.84	58.32	14.06	41.552	-17.738	-29.008	-0.74374	-0.59558	-0.30301	-0.01337	16.4	13111	100
2025-5-24 9:5:33.750	WT901BLE68(801231B9234C)	-0.434	0.771	0.179	91.431	102.478	242.432	71.98	54.30	20.81	41.552	-17.738	-29.008	-0.75024	-0.47144	-0.44934	0.11346	16.4	13111	100
2025-5-24 9:5:33.781	WT901BLE68(801231B9234C)	-0.532	0.941	0.271	108.521	108.521	273.804	78.56	49.35	26.77	41.552	-17.738	-29.008	-0.75024	-0.47144	-0.44934	0.11346	16.4	13111	100
2025-5-24 9:5:33.782	WT901BLE68(801231B9234C)	-0.552	1.217	0.368	111.877	79.346	297.119	83.68	43.57	31.01	41.552	-17.738	-29.008	-0.75024	-0.47144	-0.44934	0.11346	16.4	13111	100
2025-5-24 9:5:33.840	WT901BLE68(801231B9234C)	-0.488	1.452	0.372	100.952	16.296	316.406	86.85	37.20	33.00	41.552	-17.738	-29.008	-0.75024	-0.47144	-0.44934	0.11346	16.4	13111	100
2025-5-24 9:5:33.840	WT901BLE68(801231B9234C)	-0.411	1.522	0.258	92.957	-45.471	323.853	88.49	30.56	32.98	41.552	-17.738	-29.008	-0.75024	-0.47144	-0.44934	0.11346	16.4	13111	100
2025-5-24 9:5:33.871	WT901BLE68(801231B9234C)	-0.308	1.597	0.106	93.689	-86.975	320.129	89.54	23.99	31.71	41.552	-17.738	-29.008	-0.75024	-0.47144	-0.44934	0.11346	16.4	13111	100
2025-5-24 9:5:33.871	WT901BLE68(801231B9234C)	-0.157	1.634	0.001	97.961	-95.459	308.044	90.64	17.69	29.93	41.552	-17.738	-29.008	-0.75024	-0.47144	-0.44934	0.11346	16.4	13111	100
2025-5-24 9:5:33.900	WT901BLE68(801231B9234C)	-0.042	1.533	0.007	98.267	-62.866	285.645	92.05	11.84	28.44	41.552	-17.738	-29.008	-0.75024	-0.47144	-0.44934	0.11346	16.4	13111	100
2025-5-24 9:5:33.900	WT901BLE68(801231B9234C)	-0.047	1.387	0.118	92.102	1.770	252.319	93.70	6.61	27.93	41.552	-17.738	-29.008	-0.75024	-0.47144	-0.44934	0.11346	16.4	13111	100
2025-5-24 9:5:33.961	WT901BLE68(801231B9234C)	-0.165	1.279	0.192	84.534	78.735	212.830	95.33	2.05	28.82	41.552	-17.738	-29.008	-0.75024	-0.47144	-0.44934	0.11346	16.4	13111	100
2025-5-24 9:5:33.961	WT901BLE68(801231B9234C)	-0.268	1.200	0.188	71.350	136.536	176.025	96.66	-1.88	30.98	41.552	-17.738	-29.008	-0.75024	-0.47144	-0.44934	0.11346	16.4	13111	100
2025-5-24 9:5:33.991	WT901BLE68(801231B9234C)	-0.315	1.160	0.151	62.256	169.128	145.691	97.57	-5.27	33.92	25.284	-44.394	-20.482	-0.75024	-0.47144	-0.44934	0.11346	16.4	13111	100
2025-5-24 9:5:33.991	WT901BLE68(801231B9234C)	-0.387	1.160	0.104	54.077	182.556	122.498	98.11	-8.18	37.25	25.284	-44.394	-20.482	-0.75024	-0.47144	-0.44934	0.11346	16.4	13111	100
2025-5-24 9:5:34.29	WT901BLE68(801231B9234C)	-0.472	1.198	0.091	44.922	181.824	105.225	98.31	-10.69	40.65	25.284	-44.394	-20.482	-0.75024	-0.47144	-0.44934	0.11346	16.4	13111	100
2025-5-24 9:5:34.29	WT901BLE68(801231B9234C)	-0.503	1.227	0.102	32.593	163.635	96.741	98.21	-12.86	43.76	25.284	-44.394	-20.482	-0.75024	-0.47144	-0.44934	0.11346	16.4	13111	100
2025-5-24 9:5:34.81	WT901BLE68(801231B9234C)	-0.502	1.181	0.129	20.569	140.259	94.971	97.90	-14.83	46.33	25.284	-44.394	-20.482	-0.75024	-0.47144	-0.44934	0.11346	16.4	13111	100
2025-5-24 9:5:34.81	WT901BLE68(801231B9234C)	-0.517	1.064	0.191	9.521	121.765	93.140	97.46	-16.64	48.33	25.284	-44.394	-20.482	-0.75024	-0.47144	-0.44934	0.11346	16.4	13111	100
2025-5-24 9:5:34.112	WT901BLE68(801231B9234C)	-0.549	0.913	0.261	0.854	110.779	91.553	96.92	-18.33	49.84	25.284	-44.394	-20.482	-0.75024	-0.47144	-0.44934	0.11346	16.4	13111	100
2025-5-24 9:5:34.112	WT901BLE68(801231B9234C)	-0.592	0.852	0.335	-0.732	97.107	89.783	96.49	-19.93	50.75	25.284	-44.394	-20.482	-0.75024	-0.47144	-0.44934	0.11346	16.4	13111	100
2025-5-24 9:5:34.171	WT901BLE68(801231B9234C)	-0.638	0.895	0.364	-3.235	72.144	88.379	96.29	-21.50	50.98	25.284	-44.394	-20.482	-0.75024	-0.47144	-0.44934	0.11346	16.4	13111	100
2025-5-24 9:5:34.172	WT901BLE68(801231B9234C)	-0.660	0.949	0.353	-6.165	46.143	82.458	96.29	-22.95	50.58	25.284	-44.394	-20.482	-0.52240	-0.71982	-0.19055	-0.41537	16.4	13111	100
2025-5-24 9:5:34.202	WT901BLE68(801231B9234C)	-0.693	0.979	0.336	-10.498	25.696	63.660	96.44	-24.08	49.70	25.284	-44.394	-20.482	-0.52240	-0.71982	-0.19055	-0.41537	16.4	13111	100
2025-5-24 9:5:34.202	WT901BLE68(801231B9234C)	-0.684	1.009	0.304	-13.794	7.568	25.330	96.66	-24.54	48.47	25.284	-44.394	-20.482	-0.52240	-0.71982	-0.19055	-0.41537	16.4	13111	100
2025-5-24 9:5:34.230	WT901BLE68(801231B9234C)	-0.543	1.142	0.242	-14.832	-9.827	-23.987	96.97	-24.01	47.01	25.284	-44.394	-20.482	-0.52240	-0.71982	-0.19055	-0.41537	16.4	13111	100
2025-5-24 9:5:34.230	WT901BLE68(801231B9234C)	-0.402	1.240	0.185	-18.677	-31.067	-68.909	97.28	-22.48	45.30	25.284	-44.394	-20.482	-0.52240	-0.71982	-0.19055	-0.41537	16.4	13111	100
2025-5-24 9:5:34.290	WT901BLE68(801231B9234C)	-0.326	1.385	0.151	-20.142	-46.997	-108.093	97.60	-20.08	43.35	25.284	-44.394	-20.482	-0.52240	-0.71982	-0.19055	-0.41537	16.4	13111	100
2025-5-24 9:5:34.290	WT901BLE68(801231B9234C)	-0.293	1.485	0.121	-25.208	-46.387	-141.113	97.72	-16.97	41.46	25.284	-44.394	-20.482	-0.52240	-0.71982	-0.19055	-0.41537	16.4	13111	100
2025-5-24 9:5:34.329	WT901BLE68(801231B9234C)	-0.274	1.458	0.084	-30.151	-35.278	-167.603	97.53	-13.32	39.93	25.284	-44.394	-20.482	-0.52240	-0.71982	-0.19055	-0.41537	16.4	13111	100
2025-5-24 9:5:34.330	WT901BLE68(801231B9234C)	-0.290	1.361	0.072	-30.945	-19.470	-188.599	97.08	-9.29	38.86	25.284	-44.394	-20.482	-0.52240	-0.71982	-0.19055	-0.41537	16.4	13111	100
2025-5-24 9:5:34.351	WT901BLE68(801231B9234C)	-0.375	1.321	0.042	-25.818	-5.310	-205.933	96.54	-4.96	38.33	25.284	-44.394	-20.482	-0.52240	-0.71982	-0.19055	-0.41537	16.4	13111	100
2025-5-24 9:5:34.351	WT901BLE68(801231B9234C)	-0.444	1.319	0.030	-19.592	-10.010	-215.027	96.04	-0.45	38.16	16.856	-52.234	-12.838	-0.52240	-0.71982	-0.19055	-0.41537	16.4	13111	100
2025-5-24 9:5:34.412	WT901BLE68(801231B9234C)	-0.442	1.320	0.031	-13.184	-39.551	-212.891	95.63	4.08	37.79	16.856	-52.234	-12.838	-0.52240	-0.71982	-0.19055	-0.41537	16.4	13111	100
2025-5-24 9:5:34.412	WT901BLE68(801231B9234C)	-0.426	1.336	0.006	-9.460	-81.299	-204.407	95.22	8.49	36.77	16.856	-52.234	-12.838	-0.52240	-0.71982	-0.19055	-0.41537	16.4	13111	100
2025-5-24 9:5:34.440	WT901BLE68(801231B9234C)	-0.400	1.376	-0.023	-9.521	-120.117	-193.481	94.62	12.72	35.00	16.856	-52.234	-12.838	-0.52240	-0.71982	-0.19055	-0.41537	16.4	13111	100
2025-5-24 9:5:34.440	WT901BLE68(801231B9234C)	-0.322	1.402	-0.056	-14.404	-152.527	-180.603	93.65	16.67	32.50	16.856	-52.234	-12.838	-0.52240	-0.71982	-0.19055	-0.41537	16.4	13111	100
2025-5-24 9:5:34.471	WT901BLE68(801231B9234C)	-0.229	1.385	-0.070	-20.752	-169.861	-171.509	92.23	20.33	29.44	16.856	-52.234	-12.838	-0.52240	-0.71982	-0.19055	-0.41537	16.4	13111	100
2025-5-24 9:5:34.471	WT901BLE68(801231B9234C)	-0.151	1.370	-0.079	-29.968	-173.401	-168.152	90.37	23.75	26.08	16.856	-52.234	-12.838	-0.52240	-0.71982	-0.19055	-0.41537	16.4	13111	100
2025-5-24 9:5:34.532	WT901BLE68(801231B9234C)	-0.086	1.331	-0.088	-40.771	-160.278	-170.410	88.12	27.00	22.70	16.856	-52.234	-12.838	-0.52240	-0.71982	-0.19055	-0.41537	16.4	13111	100
2025-5-24 9:5:34.532	WT901BLE68(801231B9234C)	-0.034	1.271	-0.081	-49.622	-132.446	-176.025	85.67	30.18	19.64	16.856	-52.234	-12.838	-0.52240	-0.71982	-0.19055	-0.41537	16.4	13111	100
2025-5-24 9:5:34.562	WT901BLE68(801231B9234C)	-0.025	1.183	-0.047	-55.481	-94.360	-182.922	83.25	33.37	17.16	16.856	-52.234	-12.838	-0.52240	-0.71982	-0.19055	-0.41537	16.4	13111	100
2025-5-24 9:5:34.562	WT901BLE68(801231B9234C)	-0.052	1.106	-0.011	-56.702	-54.077	-188.843	81.08	36.64	15.41	16.856	-52.234	-12.838	-0.74295	-0.57104	-0.32788	0.11972	16.4	13111	100
2025-5-24 9:5:34.590	WT901BLE68(801231B9234C)	-0.097	1.042	0.033	-55.908	-19.348	-192.261	79.27	40.02	14.37	16.856	-52.234	-12.838	-0.74295	-0.57104	-0.32788	0.11972	16.4	13111	100
2025-5-24 9:5:34.590	WT901BLE68(801231B9234C)	-0.131	0.982	0.062	-54.138	2.869	-191.345	77.79	43.44	13.88	16.856	-52.234	-12.838	-0.74295	-0.57104	-0.32788	0.11972	16.4	13111	100
2025-5-24 9:5:34.651	WT901BLE68(801231B9234C)	-0.150	0.925	0.064	-52.917	11.719	-186.584	76.49	46.79	13.62	16.856	-52.234	-12.838	-0.74295	-0.57104	-0.32788	0.11972	16.4	13111	100
2025-5-24 9:5:34.651	WT901BLE68(801231B9234C)	-0.168	0.870	0.067	-50.476	13.977	-179.993	75.23	50.00	13.42	16.856	-52.234	-12.838	-0.74295	-0.57104	-0.32788	0.11972	16.4	13111	100
2025-5-24 9:5:34.681	WT901BLE68(801231B9234C)	-0.176	0.844	0.059	-46.326	9.644	-171.631	73.94	53.02	13.09	16.856	-52.234	-12.838	-0.74295	-0.57104	-0.32788	0.11972	16.4	13111	100
2025-5-24 9:5:34.681	WT901BLE68(801231B9234C)	-0.166	0.828	0.071	-41.565	1.221	-160.828	72.48	55.77	12.47	16.856	-52.234	-12.838	-0.74295	-0.57104	-0.32788	0.11972	16.4	13111	100
2025-5-24 9:5:34.711	WT901BLE68(801231B9234C)	-0.150	0.832	0.080	-35.828	-8.240	-146.484	70.81	58.18	11.51	16.856	-52.234	-12.838	-0.74295	-0.57104	-0.32788	0.11972	16.4	13111	100
2025-5-24 9:5:34.711	WT901BLE68(801231B9234C)	-0.135	0.867	0.086	-28.748	-16.602	-128.601	68.97	60.18	10.24	16.856	-52.234	-12.838	-0.74295	-0.57104	-0.32788	0.11972	16.4	13111	100
2025-5-24 9:5:34.772	WT901BLE68(801231B9234C)	-0.121	0.854	0.101	-24.536	-23.254	-102.417	67.12	61.66	8.84	16.856	-52.234	-12.838	-0.74295	-0.57104	-0.32788	0.11972	16.4	13111	100
2025-5-24 9:5:34.772	WT901BLE68(801231B9234C)	-0.125	0.775	0.125	-17.151	-26.123	-70.923	65.50	62.52	7.61	16.856	-52.234	-12.838	-0.74295	-0.57104	-0.32788	0.11972	16.4	13111	100
2025-5-24 9:5:34.802	WT901BLE68(801231B9234C)	-0.131	0.777	0.120	-0.671	-22.705	-28.748	64.70	62.67	7.03	43.316	-6.272	-29.204	-0.74295	-0.57104	-0.32788	0.11972	16.4	13111	100
2025-5-24 9:5:34.802	WT901BLE68(801231B9234C)	-0.134	0.792	0.104	15.808	-11.108	24.231	65.29	61.99	7.62	43.316	-6.272	-29.204	-0.74295	-0.57104	-0.32788	0.11972	16.4	13111	100
2025-5-24 9:5:34.831	WT901BLE68(801231B9234C)	-0.154	0.794	0.093	36.804	10.132	82.336	67.54	60.42	9.70	43.316	-6.272	-29.204	-0.74295	-0.57104	-0.32788	0.11972	16.4	13111	100
2025-5-24 9:5:34.831	WT901BLE68(801231B9234C)	-0.230	0.762	0.097	58.044	38.025	143.799	71.38	57.86	13.20	43.316	-6.272	-29.204	-0.74295	-0.57104	-0.32788	0.11972	16.4	13111	100
2025-5-24 9:5:34.891	WT901BLE68(801231B9234C)	-0.306	0.726	0.125	79.041	62.744	192.749	76.17	54.31	17.47	43.316	-6.272	-29.204	-0.74295	-0.57104	-0.32788	0.11972	16.4	13111	100
2025-5-24 9:5:34.891	WT901BLE68(801231B9234C)	-0.394	0.763	0.177	98.083	76.477	231.873	81.10	49.87	21.67	43.316	-6.272	-29.204	-0.74295	-0.57104	-0.32788	0.11972	16.4	13111	100
2025-5-24 9:5:34.929	WT901BLE68(801231B9234C)	-0.476	0.936	0.246	112.122	73.853	260.071	85.55	44.68	25.13	43.316	-6.272	-29.204	-0.74295	-0.57104	-0.32788	0.11972	16.4	13111	100
2025-5-24 9:5:34.929	WT901BLE68(801231B9234C)	-0.474	1.230	0.294	110.901	44.617	282.837	89.01	38.93	27.32	43.316	-6.272	-29.204	-0.74295	-0.57104	-0.32788	0.11972	16.4	13111	100
2025-5-24 9:5:34.951	WT901BLE68(801231B9234C)	-0.373	1.432	0.236	100.281	-4.395	305.359	91.17	32.74	27.92	43.316	-6.272	-29.204	-0.74295	-0.57104	-0.32788	0.11972	16.4	13111	100
2025-5-24 9:5:34.952	WT901BLE68(801231B9234C)	-0.290	1.521	0.125	95.703	-39.368	316.467	92.54	26.34	27.31	43.316	-6.272	-29.204	-0.68982	-0.65121	-0.31616	-0.00098	16.4	13111	100
2025-5-24 9:5:35.10	WT901BLE68(801231B9234C)	-0.203	1.637	0.010	97.595	-49.133	317.993	93.79	19.95	26.19	43.316	-6.272	-29.204	-0.68982	-0.65121	-0.31616	-0.00098	16.4	13111	100
2025-5-24 9:5:35.11	WT901BLE68(801231B9234C)	-0.128	1.680	-0.016	95.825	-31.616	312.500	95.20	13.69	25.11	43.316	-6.272	-29.204	-0.68982	-0.65121	-0.31616	-0.00098	16.4	13111	100
2025-5-24 9:5:35.40	WT901BLE68(801231B9234C)	-0.098	1.587	0.063	90.393	10.864	295.044	96.76	7.70	24.61	43.316	-6.272	-29.204	-0.68982	-0.65121	-0.31616	-0.00098	16.4	13111	100
2025-5-24 9:5:35.41	WT901BLE68(801231B9234C)	-0.157	1.458	0.152	81.970	67.139	266.846	98.31	2.10	25.04	43.316	-6.272	-29.204	-0.68982	-0.65121	-0.31616	-0.00098	16.4	13111	100
2025-5-24 9:5:35.70	WT901BLE68(801231B9234C)	-0.263	1.313	0.174	69.885	124.084	231.201	99.57	-2.96	26.58	43.316	-6.272	-29.204	-0.68982	-0.65121	-0.31616	-0.00098	16.4	13111	100
2025-5-24 9:5:35.70	WT901BLE68(801231B9234C)	-0.338	1.169	0.165	56.396	159.241	194.397	100.35	-7.44	28.98	43.316	-6.272	-29.204	-0.68982	-0.65121	-0.31616	-0.00098	16.4	13111	100
2025-5-24 9:5:35.131	WT901BLE68(801231B9234C)	-0.372	1.079	0.136	48.340	170.715	159.119	100.67	-11.25	31.85	43.316	-6.272	-29.204	-0.68982	-0.65121	-0.31616	-0.00098	16.4	13111	100
2025-5-24 9:5:35.131	WT901BLE68(801231B9234C)	-0.412	1.062	0.104	41.809	161.499	128.479	100.68	-14.35	34.74	43.316	-6.272	-29.204	-0.68982	-0.65121	-0.31616	-0.00098	16.4	13111	100
2025-5-24 9:5:35.162	WT901BLE68(801231B9234C)	-0.447	1.066	0.057	36.987	140.076	103.760	100.55	-16.78	37.29	43.316	-6.272	-29.204	-0.68982	-0.65121	-0.31616	-0.00098	16.4	13111	100
2025-5-24 9:5:35.162	WT901BLE68(801231B9234C)	-0.462	1.112	0.035	34.973	114.136	84.473	100.44	-18.63	39.29	15.778	-50.862	-15.876	-0.68982	-0.65121	-0.31616	-0.00098	16.4	13111	100
2025-5-24 9:5:35.190	WT901BLE68(801231B9234C)	-0.424	1.127	0.074	27.710	89.722	73.059	100.40	-20.06	40.65	15.778	-50.862	-15.876	-0.68982	-0.65121	-0.31616	-0.00098	16.4	13111	100
2025-5-24 9:5:35.190	WT901BLE68(801231B9234C)	-0.386	1.060	0.131	19.897	74.524	67.322	100.38	-21.23	41.47	15.778	-50.862	-15.876	-0.68982	-0.65121	-0.31616	-0.00098	16.4	13111	100
2025-5-24 9:5:35.251	WT901BLE68(801231B9234C)	-0.399	0.959	0.176	12.207	78.552	62.317	100.26	-22.27	42.09	15.778	-50.862	-15.876	-0.68982	-0.65121	-0.31616	-0.00098	16.4	13111	100
2025-5-24 9:5:35.251	WT901BLE68(801231B9234C)	-0.483	0.857	0.253	6.531	91.919	59.204	99.96	-23.27	42.82	15.778	-50.862	-15.876	-0.68982	-0.65121	-0.31616	-0.00098	16.4	13111	100
2025-5-24 9:5:35.281	WT901BLE68(801231B9234C)	-0.550	0.789	0.325	3.845	94.238	56.335	99.57	-24.25	43.55	15.778	-50.862	-15.876	-0.68982	-0.65121	-0.31616	-0.00098	16.4	13111	100
2025-5-24 9:5:35.281	WT901BLE68(801231B9234C)	-0.582	0.779	0.353	1.282	76.050	52.185	99.32	-25.14	43.91	15.778	-50.862	-15.876	-0.68982	-0.65121	-0.31616	-0.00098	16.4	13111	100
2025-5-24 9:5:35.310	WT901BLE68(801231B9234C)	-0.572	0.825	0.329	1.038	49.744	41.077	99.32	-25.79	43.69	15.778	-50.862	-15.876	-0.68982	-0.65121	-0.31616	-0.00098	16.4	13111	100
2025-5-24 9:5:35.311	WT901BLE68(801231B9234C)	-0.571	0.884	0.272	-0.854	25.513	21.240	99.55	-26.02	42.97	15.778	-50.862	-15.876	-0.68982	-0.65121	-0.31616	-0.00098	16.4	13111	100
2025-5-24 9:5:35.371	WT901BLE68(801231B9234C)	-0.548	0.987	0.232	-1.892	-0.122	-10.864	99.94	-25.62	41.80	15.778	-50.862	-15.876	-0.68982	-0.65121	-0.31616	-0.00098	16.4	13111	100
2025-5-24 9:5:35.371	WT901BLE68(801231B9234C)	-0.488	1.173	0.175	-2.808	-23.010	-47.424	100.49	-24.41	40.26	15.778	-50.862	-15.876	-0.68982	-0.65121	-0.31616	-0.00098	16.4	13111	100
2025-5-24 9:5:35.402	WT901BLE68(801231B9234C)	-0.399	1.257	0.158	-9.399	-40.771	-83.374	100.96	-22.42	38.53	15.778	-50.862	-15.876	-0.53439	-0.75790	-0.13138	-0.35019	16.4	13111	100
2025-5-24 9:5:35.402	WT901BLE68(801231B9234C)	-0.326	1.358	0.138	-10.681	-51.636	-117.798	101.34	-19.68	36.72	15.778	-50.862	-15.876	-0.53439	-0.75790	-0.13138	-0.35019	16.4	13111	100
2025-5-24 9:5:35.430	WT901BLE68(801231B9234C)	-0.292	1.420	0.104	-13.977	-49.438	-146.729	101.52	-16.34	35.10	15.778	-50.862	-15.876	-0.53439	-0.75790	-0.13138	-0.35019	16.4	13111	100
2025-5-24 9:5:35.430	WT901BLE68(801231B9234C)	-0.295	1.416	0.081	-16.663	-44.434	-170.471	101.45	-12.54	33.79	15.778	-50.862	-15.876	-0.53439	-0.75790	-0.13138	-0.35019	16.4	13111	100
2025-5-24 9:5:35.491	WT901BLE68(801231B9234C)	-0.312	1.395	0.074	-15.686	-39.368	-190.918	101.21	-8.36	32.83	15.778	-50.862	-15.876	-0.53439	-0.75790	-0.13138	-0.35019	16.4	13111	100
2025-5-24 9:5:35.491	WT901BLE68(801231B9234C)	-0.355	1.400	0.060	-13.367	-39.978	-205.566	100.88	-3.93	32.22	15.778	-50.862	-15.876	-0.53439	-0.75790	-0.13138	-0.35019	16.4	13111	100
2025-5-24 9:5:35.523	WT901BLE68(801231B9234C)	-0.384	1.425	0.066	-12.146	-50.110	-213.379	100.50	0.64	31.82	15.778	-50.862	-15.876	-0.53439	-0.75790	-0.13138	-0.35019	16.4	13111	100
2025-5-24 9:5:35.523	WT901BLE68(801231B9234C)	-0.386	1.447	0.043	-10.559	-71.655	-211.975	100.09	5.23	31.29	15.778	-50.862	-15.876	-0.53439	-0.75790	-0.13138	-0.35019	16.4	13111	100
2025-5-24 9:5:35.550	WT901BLE68(801231B9234C)	-0.374	1.500	0.018	-11.414	-97.168	-205.444	99.57	9.74	30.37	15.778	-50.862	-15.876	-0.53439	-0.75790	-0.13138	-0.35019	16.4	13111	100
2025-5-24 9:5:35.550	WT901BLE68(801231B9234C)	-0.324	1.556	-0.006	-15.625	-119.812	-194.275	98.83	14.06	28.97	15.778	-50.862	-15.876	-0.53439	-0.75790	-0.13138	-0.35019	16.4	13111	100
2025-5-24 9:5:35.611	WT901BLE68(801231B9234C)	-0.248	1.544	-0.026	-23.193	-130.981	-182.251	97.74	18.11	27.18	28.518	-46.550	-14.896	-0.53439	-0.75790	-0.13138	-0.35019	16.4	13111	100
2025-5-24 9:5:35.611	WT901BLE68(801231B9234C)	-0.184	1.459	-0.042	-32.227	-131.470	-174.316	96.31	21.87	25.19	28.518	-46.550	-14.896	-0.53439	-0.75790	-0.13138	-0.35019	16.4	13111	100
2025-5-24 9:5:35.640	WT901BLE68(801231B9234C)	-0.132	1.363	-0.056	-38.940	-122.009	-172.180	94.60	25.43	23.19	28.518	-46.550	-14.896	-0.53439	-0.75790	-0.13138	-0.35019	16.4	13111	100
2025-5-24 9:5:35.641	WT901BLE68(801231B9234C)	-0.110	1.282	-0.031	-44.800	-106.262	-175.720	92.75	28.88	21.36	28.518	-46.550	-14.896	-0.53439	-0.75790	-0.13138	-0.35019	16.4	13111	100
2025-5-24 9:5:35.701	WT901BLE68(801231B9234C)	-0.085	1.203	-0.004	-49.133	-87.891	-181.885	90.83	32.32	19.76	28.518	-46.550	-14.896	-0.53439	-0.75790	-0.13138	-0.35019	16.4	13111	100
2025-5-24 9:5:35.701	WT901BLE68(801231B9234C)	-0.069	1.127	0.022	-52.429	-67.566	-188.293	88.92	35.78	18.45	28.518	-46.550	-14.896	-0.53439	-0.75790	-0.13138	-0.35019	16.4	13111	100
2025-5-24 9:5:35.731	WT901BLE68(801231B9234C)	-0.078	1.046	0.038	-54.749	-45.654	-193.542	87.11	39.27	17.48	28.518	-46.550	-14.896	-0.53439	-0.75790	-0.13138	-0.35019	16.4	13111	100
2025-5-24 9:5:35.732	WT901BLE68(801231B9234C)	-0.103	0.981	0.067	-55.725	-24.353	-196.167	85.47	42.79	16.91	28.518	-46.550	-14.896	-0.53439	-0.75790	-0.13138	-0.35019	16.4	13111	100
2025-5-24 9:5:35.761	WT901BLE68(801231B9234C)	-0.133	0.932	0.065	-55.237	-11.597	-194.153	84.00	46.26	16.62	28.518	-46.550	-14.896	-0.53439	-0.75790	-0.13138	-0.35019	16.4	13111	100
2025-5-24 9:5:35.761	WT901BLE68(801231B9234C)	-0.145	0.878	0.067	-54.810	-7.141	-188.599	82.58	49.61	16.41	28.518	-46.550	-14.896	-0.71310	-0.54834	-0.39828	0.17902	16.4	13111	100
2025-5-24 9:5:35.829	WT901BLE68(801231B9234C)	-0.153	0.823	0.061	-52.856	-8.240	-179.932	81.10	52.77	16.09	28.518	-46.550	-14.896	-0.71310	-0.54834	-0.39828	0.17902	16.4	13111	100
2025-5-24 9:5:35.830	WT901BLE68(801231B9234C)	-0.156	0.787	0.052	-48.889	-11.047	-167.908	79.50	55.67	15.58	28.518	-46.550	-14.896	-0.71310	-0.54834	-0.39828	0.17902	16.4	13111	100
2025-5-24 9:5:35.850	WT901BLE68(801231B9234C)	-0.159	0.772	0.044	-42.908	-14.221	-151.062	77.82	58.23	14.86	28.518	-46.550	-14.896	-0.71310	-0.54834	-0.39828	0.17902	16.4	13111	100
2025-5-24 9:5:35.850	WT901BLE68(801231B9234C)	-0.151	0.787	0.038	-36.072	-16.663	-129.517	76.14	60.35	14.00	28.518	-46.550	-14.896	-0.71310	-0.54834	-0.39828	0.17902	16.4	13111	100
2025-5-24 9:5:35.898	WT901BLE68(801231B9234C)	-0.139	0.798	0.042	-28.687	-16.296	-101.379	74.62	61.94	13.18	28.518	-46.550	-14.896	-0.71310	-0.54834	-0.39828	0.17902	16.4	13111	100
2025-5-24 9:5:35.898	WT901BLE68(801231B9234C)	-0.151	0.770	0.064	-22.156	-10.803	-68.787	73.56	62.92	12.73	28.518	-46.550	-14.896	-0.71310	-0.54834	-0.39828	0.17902	16.4	13111	100
2025-5-24 9:5:35.941	WT901BLE68(801231B9234C)	-0.200	0.716	0.080	-12.695	-1.648	-32.166	73.28	63.26	12.99	28.518	-46.550	-14.896	-0.71310	-0.54834	-0.39828	0.17902	16.4	13111	100
2025-5-24 9:5:35.942	WT901BLE68(801231B9234C)	-0.258	0.720	0.083	3.418	12.878	11.414	74.16	62.88	14.24	28.518	-46.550	-14.896	-0.71310	-0.54834	-0.39828	0.17902	16.4	13111	100
2025-5-24 9:5:35.972	WT901BLE68(801231B9234C)	-0.308	0.797	0.085	20.203	27.100	58.655	76.22	61.69	16.48	28.518	-46.550	-14.896	-0.71310	-0.54834	-0.39828	0.17902	16.4	13111	100
2025-5-24 9:5:35.972	WT901BLE68(801231B9234C)	-0.325	0.880	0.105	35.889	40.771	112.732	79.19	59.53	19.43	44.590	-4.410	-27.538	-0.71310	-0.54834	-0.39828	0.17902	16.4	13111	100
2025-5-24 9:5:36.2	WT901BLE68(801231B9234C)	-0.348	0.836	0.149	45.654	51.941	163.147	82.55	56.34	22.66	44.590	-4.410	-27.538	-0.71310	-0.54834	-0.39828	0.17902	16.4	13111	100
2025-5-24 9:5:36.2	WT901BLE68(801231B9234C)	-0.472	0.747	0.182	59.082	61.768	197.632	85.86	52.31	25.73	44.590	-4.410	-27.538	-0.71310	-0.54834	-0.39828	0.17902	16.4	13111	100
2025-5-24 9:5:36.60	WT901BLE68(801231B9234C)	-0.553	0.817	0.217	71.716	63.416	218.689	88.96	47.75	28.37	44.590	-4.410	-27.538	-0.71310	-0.54834	-0.39828	0.17902	16.4	13111	100
2025-5-24 9:5:36.60	WT901BLE68(801231B9234C)	-0.470	0.966	0.234	79.590	39.490	237.183	91.40	42.84	30.06	44.590	-4.410	-27.538	-0.71310	-0.54834	-0.39828	0.17902	16.4	13111	100
2025-5-24 9:5:36.96	WT901BLE68(801231B9234C)	-0.367	1.167	0.205	83.679	3.906	253.906	93.04	37.63	30.53	44.590	-4.410	-27.538	-0.71310	-0.54834	-0.39828	0.17902	16.4	13111	100
2025-5-24 9:5:36.96	WT901BLE68(801231B9234C)	-0.324	1.348	0.134	81.726	-18.494	260.681	94.15	32.30	30.11	44.590	-4.410	-27.538	-0.71310	-0.54834	-0.39828	0.17902	16.4	13111	100
2025-5-24 9:5:36.123	WT901BLE68(801231B9234C)	-0.308	1.454	0.069	77.148	-23.499	260.742	95.08	27.00	29.38	44.590	-4.410	-27.538	-0.71310	-0.54834	-0.39828	0.17902	16.4	13111	100
2025-5-24 9:5:36.123	WT901BLE68(801231B9234C)	-0.254	1.487	0.029	75.623	-11.353	259.277	96.06	21.77	28.74	44.590	-4.410	-27.538	-0.71310	-0.54834	-0.39828	0.17902	16.4	13111	100
2025-5-24 9:5:36.383	WT901BLE68(801231B9234C)	-0.201	1.431	0.048	71.777	14.832	253.296	97.20	16.63	28.47	44.590	-4.410	-27.538	-0.71310	-0.54834	-0.39828	0.17902	16.4	13111	100
2025-5-24 9:5:36.383	WT901BLE68(801231B9234C)	-0.216	1.331	0.086	66.101	53.162	241.028	98.40	11.63	28.82	44.590	-4.410	-27.538	-0.71310	-0.54834	-0.39828	0.17902	16.4	13111	100
2025-5-24 9:5:36.384	WT901BLE68(801231B9234C)	-0.284	1.244	0.109	58.899	90.881	222.595	99.57	6.87	29.88	44.590	-4.410	-27.538	-0.62653	-0.73315	-0.22809	-0.13345	16.4	13111	100
2025-5-24 9:5:36.384	WT901BLE68(801231B9234C)	-0.336	1.178	0.122	49.377	118.347	204.773	100.51	2.40	31.54	44.590	-4.410	-27.538	-0.62653	-0.73315	-0.22809	-0.13345	16.4	13111	100
2025-5-24 9:5:36.384	WT901BLE68(801231B9234C)	-0.349	1.108	0.101	40.649	130.920	187.073	101.16	-1.77	33.51	44.590	-4.410	-27.538	-0.62653	-0.73315	-0.22809	-0.13345	16.4	13111	100
2025-5-24 9:5:36.384	WT901BLE68(801231B9234C)	-0.375	1.071	0.047	34.058	134.583	168.701	101.52	-5.56	35.61	44.590	-4.410	-27.538	-0.62653	-0.73315	-0.22809	-0.13345	16.4	13111	100
2025-5-24 9:5:36.384	WT901BLE68(801231B9234C)	-0.406	1.063	0.006	28.748	133.423	149.780	101.64	-8.94	37.74	44.590	-4.410	-27.538	-0.62653	-0.73315	-0.22809	-0.13345	16.4	13111	100
2025-5-24 9:5:36.384	WT901BLE68(801231B9234C)	-0.427	1.081	0.005	25.391	123.474	132.813	101.61	-11.88	39.74	44.590	-4.410	-27.538	-0.62653	-0.73315	-0.22809	-0.13345	16.4	13111	100
2025-5-24 9:5:36.512	WT901BLE68(801231B9234C)	-0.419	1.119	0.045	21.423	106.445	119.202	101.49	-14.41	41.45	44.590	-4.410	-27.538	-0.62653	-0.73315	-0.22809	-0.13345	16.4	13111	100
2025-5-24 9:5:36.513	WT901BLE68(801231B9234C)	-0.376	1.121	0.078	16.541	93.689	108.032	101.32	-16.58	42.80	44.590	-4.410	-27.538	-0.62653	-0.73315	-0.22809	-0.13345	16.4	13111	100
2025-5-24 9:5:36.514	WT901BLE68(801231B9234C)	-0.375	1.072	0.133	11.047	98.938	98.206	101.01	-18.51	44.06	44.590	-4.410	-27.538	-0.62653	-0.73315	-0.22809	-0.13345	16.4	13111	100
2025-5-24 9:5:36.515	WT901BLE68(801231B9234C)	-0.447	1.002	0.192	5.554	109.924	90.027	100.51	-20.26	45.47	44.590	-4.410	-27.538	-0.62653	-0.73315	-0.22809	-0.13345	16.4	13111	100
2025-5-24 9:5:36.516	WT901BLE68(801231B9234C)	-0.530	0.960	0.254	1.160	115.723	83.252	99.85	-21.87	46.92	44.590	-4.410	-27.538	-0.62653	-0.73315	-0.22809	-0.13345	16.4	13111	100
2025-5-24 9:5:36.516	WT901BLE68(801231B9234C)	-0.602	0.964	0.276	-2.563	106.079	78.491	99.24	-23.33	47.99	44.590	-4.410	-27.538	-0.62653	-0.73315	-0.22809	-0.13345	16.4	13111	100
2025-5-24 9:5:36.517	WT901BLE68(801231B9234C)	-0.632	0.989	0.258	-4.089	85.205	70.923	98.83	-24.66	48.49	44.590	-4.410	-27.538	-0.62653	-0.73315	-0.22809	-0.13345	16.4	13111	100
2025-5-24 9:5:36.517	WT901BLE68(801231B9234C)	-0.645	1.037	0.244	-4.761	64.819	54.993	98.64	-25.68	48.50	44.590	-4.410	-27.538	-0.62653	-0.73315	-0.22809	-0.13345	16.4	13111	100
2025-5-24 9:5:36.523	WT901BLE68(801231B9234C)	-0.660	1.019	0.221	-6.104	44.800	26.367	98.59	-26.18	48.14	44.590	-4.410	-27.538	-0.62653	-0.73315	-0.22809	-0.13345	16.4	13111	100
2025-5-24 9:5:36.523	WT901BLE68(801231B9234C)	-0.589	1.116	0.181	-1.587	19.470	-14.160	98.77	-25.86	47.40	44.590	-4.410	-27.538	-0.62653	-0.73315	-0.22809	-0.13345	16.4	13111	100
2025-5-24 9:5:36.781	WT901BLE68(801231B9234C)	-0.493	1.245	0.131	-0.610	-8.057	-49.622	99.21	-24.70	46.22	44.590	-4.410	-27.538	-0.62653	-0.73315	-0.22809	-0.13345	16.4	13111	100
2025-5-24 9:5:36.781	WT901BLE68(801231B9234C)	-0.440	1.331	0.117	-0.244	-35.400	-82.336	99.78	-22.79	44.63	44.590	-4.410	-27.538	-0.62653	-0.73315	-0.22809	-0.13345	16.4	13111	100
2025-5-24 9:5:36.841	WT901BLE68(801231B9234C)	-0.397	1.402	0.105	-1.343	-53.101	-109.436	100.40	-20.20	42.75	10.878	-54.096	-9.800	-0.62653	-0.73315	-0.22809	-0.13345	16.4	13111	100
2025-5-24 9:5:36.842	WT901BLE68(801231B9234C)	-0.372	1.382	0.078	-3.357	-60.059	-131.775	100.90	-17.11	40.87	10.878	-54.096	-9.800	-0.62653	-0.73315	-0.22809	-0.13345	16.4	13111	100
2025-5-24 9:5:36.845	WT901BLE68(801231B9234C)	-0.367	1.319	0.067	-4.333	-63.721	-150.696	101.23	-13.61	39.12	10.878	-54.096	-9.800	-0.62653	-0.73315	-0.22809	-0.13345	16.4	13111	100
2025-5-24 9:5:36.846	WT901BLE68(801231B9234C)	-0.399	1.271	0.068	-2.808	-67.749	-166.199	101.43	-9.78	37.52	10.878	-54.096	-9.800	-0.62653	-0.73315	-0.22809	-0.13345	16.4	13111	100
2025-5-24 9:5:36.847	WT901BLE68(801231B9234C)	-0.434	1.273	0.066	-0.916	-84.106	-177.612	101.52	-5.67	35.99	10.878	-54.096	-9.800	-0.62653	-0.73315	-0.22809	-0.13345	16.4	13111	100
2025-5-24 9:5:36.847	WT901BLE68(801231B9234C)	-0.426	1.300	0.057	-0.244	-114.929	-181.091	101.53	-1.40	34.26	10.878	-54.096	-9.800	-0.62653	-0.73315	-0.22809	-0.13345	16.4	13111	100
2025-5-24 9:5:36.848	WT901BLE68(801231B9234C)	-0.399	1.324	0.026	-2.075	-152.161	-178.650	101.35	2.94	32.08	10.878	-54.096	-9.800	-0.62653	-0.73315	-0.22809	-0.13345	16.4	13111	100
2025-5-24 9:5:36.848	WT901BLE68(801231B9234C)	-0.354	1.384	-0.021	-6.470	-186.035	-173.645	100.86	7.26	29.36	10.878	-54.096	-9.800	-0.62653	-0.73315	-0.22809	-0.13345	16.4	13111	100
2025-5-24 9:5:36.848	WT901BLE68(801231B9234C)	-0.280	1.422	-0.047	-16.541	-208.435	-166.199	99.94	11.44	26.13	10.878	-54.096	-9.800	-0.62653	-0.73315	-0.22809	-0.13345	16.4	13111	100
2025-5-24 9:5:36.848	WT901BLE68(801231B9234C)	-0.205	1.395	-0.062	-30.396	-216.675	-159.668	98.45	15.39	22.57	10.878	-54.096	-9.800	-0.62653	-0.73315	-0.22809	-0.13345	16.4	13111	100
2025-5-24 9:5:36.849	WT901BLE68(801231B9234C)	-0.127	1.347	-0.084	-43.457	-210.815	-157.288	96.44	19.08	18.89	10.878	-54.096	-9.800	-0.62653	-0.73315	-0.22809	-0.13345	16.4	13111	100
2025-5-24 9:5:36.849	WT901BLE68(801231B9234C)	-0.065	1.288	-0.119	-54.688	-189.148	-157.104	94.05	22.52	15.36	10.878	-54.096	-9.800	-0.62653	-0.73315	-0.22809	-0.13345	16.4	13111	100
2025-5-24 9:5:36.849	WT901BLE68(801231B9234C)	-0.038	1.211	-0.112	-63.293	-153.870	-159.851	91.48	25.74	12.31	10.878	-54.096	-9.800	-0.62653	-0.73315	-0.22809	-0.13345	16.4	13111	100
2025-5-24 9:5:36.849	WT901BLE68(801231B9234C)	-0.045	1.118	-0.084	-68.054	-114.319	-164.978	88.95	28.86	9.92	10.878	-54.096	-9.800	-0.70529	-0.65637	-0.23688	0.12454	16.4	13111	100
2025-5-24 9:5:36.850	WT901BLE68(801231B9234C)	-0.088	1.036	-0.061	-68.665	-76.233	-170.227	86.62	31.95	8.20	10.878	-54.096	-9.800	-0.70529	-0.65637	-0.23688	0.12454	16.4	13111	100
2025-5-24 9:5:36.850	WT901BLE68(801231B9234C)	-0.136	0.979	-0.051	-67.261	-48.889	-172.974	84.55	35.06	7.05	10.878	-54.096	-9.800	-0.70529	-0.65637	-0.23688	0.12454	16.4	13111	100
2025-5-24 9:5:36.901	WT901BLE68(801231B9234C)	-0.159	0.951	-0.053	-63.599	-31.982	-170.654	82.70	38.12	6.26	34.006	-34.006	-27.048	-0.70529	-0.65637	-0.23688	0.12454	16.4	13111	100
2025-5-24 9:5:36.901	WT901BLE68(801231B9234C)	-0.158	0.923	-0.058	-61.584	-22.461	-162.720	80.99	41.03	5.63	34.006	-34.006	-27.048	-0.70529	-0.65637	-0.23688	0.12454	16.4	13111	100
2025-5-24 9:5:36.930	WT901BLE68(801231B9234C)	-0.153	0.850	-0.057	-60.669	-16.357	-153.748	79.33	43.75	5.07	34.006	-34.006	-27.048	-0.70529	-0.65637	-0.23688	0.12454	16.4	13111	100
2025-5-24 9:5:36.931	WT901BLE68(801231B9234C)	-0.156	0.784	-0.049	-57.312	-11.047	-145.081	77.76	46.27	4.59	34.006	-34.006	-27.048	-0.70529	-0.65637	-0.23688	0.12454	16.4	13111	100
2025-5-24 9:5:36.961	WT901BLE68(801231B9234C)	-0.173	0.789	-0.041	-49.194	-6.531	-136.475	76.34	48.60	4.17	34.006	-34.006	-27.048	-0.70529	-0.65637	-0.23688	0.12454	16.4	13111	100
2025-5-24 9:5:36.962	WT901BLE68(801231B9234C)	-0.155	0.879	-0.053	-42.664	-3.418	-123.352	75.15	50.71	3.86	34.006	-34.006	-27.048	-0.70529	-0.65637	-0.23688	0.12454	16.4	13111	100
2025-5-24 9:5:37.21	WT901BLE68(801231B9234C)	-0.127	0.925	-0.059	-39.551	1.953	-105.835	74.17	52.51	3.73	34.006	-34.006	-27.048	-0.72241	-0.52936	-0.37152	0.24445	16.4	13111	100
2025-5-24 9:5:37.21	WT901BLE68(801231B9234C)	-0.120	0.957	-0.053	-33.569	13.733	-85.388	73.61	53.96	4.02	34.006	-34.006	-27.048	-0.72241	-0.52936	-0.37152	0.24445	16.4	13111	100
2025-5-24 9:5:37.50	WT901BLE68(801231B9234C)	-0.147	0.940	0.010	-29.785	29.297	-64.331	73.71	55.06	4.98	34.006	-34.006	-27.048	-0.72241	-0.52936	-0.37152	0.24445	16.4	13111	100
2025-5-24 9:5:37.51	WT901BLE68(801231B9234C)	-0.165	0.983	0.020	-14.648	40.649	-41.199	74.55	55.80	6.62	34.006	-34.006	-27.048	-0.72241	-0.52936	-0.37152	0.24445	16.4	13111	100
2025-5-24 9:5:37.111	WT901BLE68(801231B9234C)	-0.163	1.031	0.000	-4.395	51.147	-9.216	76.16	56.01	8.89	34.006	-34.006	-27.048	-0.72241	-0.52936	-0.37152	0.24445	16.4	13111	100
2025-5-24 9:5:37.111	WT901BLE68(801231B9234C)	-0.194	0.991	0.005	12.329	65.002	32.043	78.58	55.50	11.84	34.006	-34.006	-27.048	-0.72241	-0.52936	-0.37152	0.24445	16.4	13111	100
2025-5-24 9:5:37.140	WT901BLE68(801231B9234C)	-0.257	0.944	0.038	32.349	76.416	79.224	81.81	54.06	15.35	34.006	-34.006	-27.048	-0.72241	-0.52936	-0.37152	0.24445	16.4	13111	100
2025-5-24 9:5:37.141	WT901BLE68(801231B9234C)	-0.306	0.845	0.113	50.903	76.294	126.587	85.30	51.59	18.85	34.006	-34.006	-27.048	-0.72241	-0.52936	-0.37152	0.24445	16.4	13111	100
2025-5-24 9:5:37.172	WT901BLE68(801231B9234C)	-0.323	0.785	0.213	70.618	65.796	169.434	88.58	48.15	21.75	34.006	-34.006	-27.048	-0.72241	-0.52936	-0.37152	0.24445	16.4	13111	100
2025-5-24 9:5:37.172	WT901BLE68(801231B9234C)	-0.320	0.828	0.279	87.769	45.166	201.965	91.36	43.95	23.68	34.006	-34.006	-27.048	-0.72241	-0.52936	-0.37152	0.24445	16.4	13111	100
2025-5-24 9:5:37.230	WT901BLE68(801231B9234C)	-0.307	1.045	0.321	95.703	15.015	225.525	93.49	39.25	24.48	42.826	-18.130	-26.460	-0.72241	-0.52936	-0.37152	0.24445	16.4	13111	100
2025-5-24 9:5:37.230	WT901BLE68(801231B9234C)	-0.247	1.269	0.310	88.257	-20.813	242.920	94.85	34.26	24.21	42.826	-18.130	-26.460	-0.72241	-0.52936	-0.37152	0.24445	16.4	13111	100
2025-5-24 9:5:37.260	WT901BLE68(801231B9234C)	-0.145	1.362	0.241	78.796	-47.791	253.296	95.59	29.14	23.12	42.826	-18.130	-26.460	-0.72241	-0.52936	-0.37152	0.24445	16.4	13111	100
2025-5-24 9:5:37.260	WT901BLE68(801231B9234C)	-0.047	1.417	0.106	78.003	-51.514	258.850	96.21	23.94	21.73	42.826	-18.130	-26.460	-0.72241	-0.52936	-0.37152	0.24445	16.4	13111	100
2025-5-24 9:5:37.291	WT901BLE68(801231B9234C)	0.009	1.420	0.000	79.956	-23.010	262.268	97.14	18.69	20.68	42.826	-18.130	-26.460	-0.72241	-0.52936	-0.37152	0.24445	16.4	13111	100
2025-5-24 9:5:37.291	WT901BLE68(801231B9234C)	0.009	1.353	0.014	78.735	32.104	259.460	98.42	13.38	20.51	42.826	-18.130	-26.460	-0.72241	-0.52936	-0.37152	0.24445	16.4	13111	100
2025-5-24 9:5:37.351	WT901BLE68(801231B9234C)	-0.096	1.317	0.099	73.669	93.933	248.169	99.86	8.06	21.45	42.826	-18.130	-26.460	-0.72241	-0.52936	-0.37152	0.24445	16.4	13111	100
2025-5-24 9:5:37.351	WT901BLE68(801231B9234C)	-0.232	1.295	0.151	62.439	145.386	230.957	101.13	2.87	23.42	42.826	-18.130	-26.460	-0.72241	-0.52936	-0.37152	0.24445	16.4	13111	100
2025-5-24 9:5:37.681	WT901BLE68(801231B9234C)	-0.323	1.224	0.141	47.974	180.176	212.097	101.96	-2.09	26.15	42.826	-18.130	-26.460	-0.72241	-0.52936	-0.37152	0.24445	16.4	13111	100
2025-5-24 9:5:37.681	WT901BLE68(801231B9234C)	-0.441	1.151	0.107	37.537	196.472	190.125	102.28	-6.72	29.33	42.826	-18.130	-26.460	-0.72241	-0.52936	-0.37152	0.24445	16.4	13111	100
2025-5-24 9:5:37.682	WT901BLE68(801231B9234C)	-0.559	1.138	0.119	29.114	184.631	166.626	102.18	-10.81	32.57	42.826	-18.130	-26.460	-0.72241	-0.52936	-0.37152	0.24445	16.4	13111	100
2025-5-24 9:5:37.682	WT901BLE68(801231B9234C)	-0.628	1.167	0.155	22.888	142.090	147.949	101.87	-14.24	35.24	42.826	-18.130	-26.460	-0.72241	-0.52936	-0.37152	0.24445	16.4	13111	100
2025-5-24 9:5:37.683	WT901BLE68(801231B9234C)	-0.616	1.167	0.209	16.541	78.918	132.690	101.61	-17.02	36.75	42.826	-18.130	-26.460	-0.54642	-0.76068	-0.14343	-0.31958	16.4	13111	100
2025-5-24 9:5:37.684	WT901BLE68(801231B9234C)	-0.536	1.070	0.276	13.611	23.315	118.652	101.64	-19.15	36.86	42.826	-18.130	-26.460	-0.54642	-0.76068	-0.14343	-0.31958	16.4	13111	100
2025-5-24 9:5:37.684	WT901BLE68(801231B9234C)	-0.517	0.995	0.337	10.193	-6.165	104.797	101.99	-20.80	35.94	42.826	-18.130	-26.460	-0.54642	-0.76068	-0.14343	-0.31958	16.4	13111	100
2025-5-24 9:5:37.684	WT901BLE68(801231B9234C)	-0.509	0.967	0.409	6.042	-18.066	90.332	102.54	-22.04	34.32	42.826	-18.130	-26.460	-0.54642	-0.76068	-0.14343	-0.31958	16.4	13111	100
2025-5-24 9:5:37.685	WT901BLE68(801231B9234C)	-0.521	0.978	0.449	0.122	-19.043	78.247	103.16	-23.02	32.40	42.826	-18.130	-26.460	-0.54642	-0.76068	-0.14343	-0.31958	16.4	13111	100
2025-5-24 9:5:37.685	WT901BLE68(801231B9234C)	-0.539	1.008	0.428	-7.507	-13.794	64.209	103.68	-23.74	30.49	42.826	-18.130	-26.460	-0.54642	-0.76068	-0.14343	-0.31958	16.4	13111	100
2025-5-24 9:5:37.686	WT901BLE68(801231B9234C)	-0.535	1.021	0.358	-15.137	-6.592	43.823	103.98	-24.14	28.77	42.826	-18.130	-26.460	-0.54642	-0.76068	-0.14343	-0.31958	16.4	13111	100
2025-5-24 9:5:37.686	WT901BLE68(801231B9234C)	-0.473	1.086	0.298	-19.348	1.099	17.029	104.05	-24.08	27.35	42.826	-18.130	-26.460	-0.54642	-0.76068	-0.14343	-0.31958	16.4	13111	100
2025-5-24 9:5:37.686	WT901BLE68(801231B9234C)	-0.416	1.048	0.271	-26.001	11.780	-14.282	103.85	-23.51	26.32	42.826	-18.130	-26.460	-0.54642	-0.76068	-0.14343	-0.31958	16.4	13111	100
2025-5-24 9:5:37.686	WT901BLE68(801231B9234C)	-0.378	1.098	0.218	-26.184	18.616	-49.072	103.40	-22.32	25.66	42.826	-18.130	-26.460	-0.54642	-0.76068	-0.14343	-0.31958	16.4	13111	100
2025-5-24 9:5:37.687	WT901BLE68(801231B9234C)	-0.398	1.248	0.142	-29.846	28.625	-81.055	102.79	-20.52	25.40	42.826	-18.130	-26.460	-0.54642	-0.76068	-0.14343	-0.31958	16.4	13111	100
2025-5-24 9:5:37.687	WT901BLE68(801231B9234C)	-0.383	1.304	0.115	-30.945	37.537	-110.535	101.96	-18.20	25.53	42.826	-18.130	-26.460	-0.54642	-0.76068	-0.14343	-0.31958	16.4	13111	100
2025-5-24 9:5:37.801	WT901BLE68(801231B9234C)	-0.346	1.404	0.085	-27.771	44.434	-134.888	101.11	-15.41	25.96	42.826	-18.130	-26.460	-0.54642	-0.76068	-0.14343	-0.31958	16.4	13111	100
2025-5-24 9:5:37.801	WT901BLE68(801231B9234C)	-0.355	1.410	0.039	-26.367	54.749	-155.884	100.23	-12.25	26.72	42.826	-18.130	-26.460	-0.54642	-0.76068	-0.14343	-0.31958	16.4	13111	100
2025-5-24 9:5:37.863	WT901BLE68(801231B9234C)	-0.402	1.331	0.017	-21.484	61.707	-176.453	99.42	-8.74	27.82	12.054	-52.430	-15.974	-0.54642	-0.76068	-0.14343	-0.31958	16.4	13111	100
2025-5-24 9:5:37.863	WT901BLE68(801231B9234C)	-0.446	1.271	0.010	-10.742	54.749	-193.909	98.83	-4.89	29.07	12.054	-52.430	-15.974	-0.54642	-0.76068	-0.14343	-0.31958	16.4	13111	100
2025-5-24 9:5:37.864	WT901BLE68(801231B9234C)	-0.454	1.277	0.010	2.014	24.963	-205.566	98.61	-0.74	30.05	12.054	-52.430	-15.974	-0.54642	-0.76068	-0.14343	-0.31958	16.4	13111	100
2025-5-24 9:5:37.865	WT901BLE68(801231B9234C)	-0.438	1.282	-0.002	10.376	-17.944	-209.778	98.66	3.61	30.42	12.054	-52.430	-15.974	-0.54642	-0.76068	-0.14343	-0.31958	16.4	13111	100
2025-5-24 9:5:37.866	WT901BLE68(801231B9234C)	-0.411	1.313	-0.033	17.578	-66.223	-209.229	98.80	8.07	30.00	12.054	-52.430	-15.974	-0.54642	-0.76068	-0.14343	-0.31958	16.4	13111	100
2025-5-24 9:5:37.866	WT901BLE68(801231B9234C)	-0.366	1.403	-0.061	20.752	-107.361	-203.796	98.86	12.54	28.81	12.054	-52.430	-15.974	-0.54642	-0.76068	-0.14343	-0.31958	16.4	13111	100
2025-5-24 9:5:37.866	WT901BLE68(801231B9234C)	-0.305	1.521	-0.060	18.250	-132.690	-196.167	98.66	16.90	27.04	12.054	-52.430	-15.974	-0.65067	-0.70947	-0.26819	-0.03513	16.4	13111	100
2025-5-24 9:5:37.866	WT901BLE68(801231B9234C)	-0.229	1.596	-0.053	8.118	-145.874	-186.523	98.06	21.06	24.91	12.054	-52.430	-15.974	-0.65067	-0.70947	-0.26819	-0.03513	16.4	13111	100
2025-5-24 9:5:37.890	WT901BLE68(801231B9234C)	-0.140	1.478	-0.063	-4.395	-144.653	-182.556	96.99	24.99	22.62	12.054	-52.430	-15.974	-0.65067	-0.70947	-0.26819	-0.03513	16.4	13111	100
2025-5-24 9:5:37.891	WT901BLE68(801231B9234C)	-0.090	1.333	-0.057	-12.268	-126.587	-186.707	95.67	28.82	20.49	12.054	-52.430	-15.974	-0.65067	-0.70947	-0.26819	-0.03513	16.4	13111	100
2025-5-24 9:5:37.950	WT901BLE68(801231B9234C)	-0.070	1.210	-0.016	-18.982	-101.807	-195.435	94.28	32.63	18.76	12.054	-52.430	-15.974	-0.65067	-0.70947	-0.26819	-0.03513	16.4	13111	100
2025-5-24 9:5:37.951	WT901BLE68(801231B9234C)	-0.058	1.088	0.027	-22.949	-78.491	-205.688	92.93	36.50	17.48	12.054	-52.430	-15.974	-0.65067	-0.70947	-0.26819	-0.03513	16.4	13111	100
2025-5-24 9:5:37.981	WT901BLE68(801231B9234C)	-0.070	1.003	0.072	-24.780	-56.946	-216.492	91.71	40.49	16.62	12.054	-52.430	-15.974	-0.65067	-0.70947	-0.26819	-0.03513	16.4	13111	100
2025-5-24 9:5:37.981	WT901BLE68(801231B9234C)	-0.108	0.964	0.096	-25.879	-40.649	-222.351	90.64	44.55	16.12	12.054	-52.430	-15.974	-0.65067	-0.70947	-0.26819	-0.03513	16.4	13111	100
2025-5-24 9:5:38.11	WT901BLE68(801231B9234C)	-0.124	0.931	0.100	-27.039	-32.104	-220.581	89.65	48.56	15.80	12.054	-52.430	-15.974	-0.65067	-0.70947	-0.26819	-0.03513	16.4	13111	100
2025-5-24 9:5:38.11	WT901BLE68(801231B9234C)	-0.143	0.896	0.107	-28.564	-29.724	-214.050	88.59	52.42	15.48	41.258	-26.656	-24.598	-0.65067	-0.70947	-0.26819	-0.03513	16.4	13111	100
2025-5-24 9:5:38.71	WT901BLE68(801231B9234C)	-0.156	0.889	0.121	-29.297	-31.616	-202.271	87.34	56.04	14.98	41.258	-26.656	-24.598	-0.65067	-0.70947	-0.26819	-0.03513	16.4	13111	100
2025-5-24 9:5:38.71	WT901BLE68(801231B9234C)	-0.146	0.875	0.132	-31.738	-37.170	-182.800	85.73	59.28	14.13	41.258	-26.656	-24.598	-0.65067	-0.70947	-0.26819	-0.03513	16.4	13111	100
2025-5-24 9:5:38.100	WT901BLE68(801231B9234C)	-0.114	0.834	0.143	-34.546	-42.969	-159.119	83.61	62.01	12.80	41.258	-26.656	-24.598	-0.65067	-0.70947	-0.26819	-0.03513	16.4	13111	100
2025-5-24 9:5:38.100	WT901BLE68(801231B9234C)	-0.088	0.791	0.146	-35.095	-42.664	-131.836	81.15	64.16	11.15	41.258	-26.656	-24.598	-0.65067	-0.70947	-0.26819	-0.03513	16.4	13111	100
2025-5-24 9:5:38.131	WT901BLE68(801231B9234C)	-0.079	0.781	0.145	-31.982	-34.363	-98.572	78.83	65.65	9.65	41.258	-26.656	-24.598	-0.65067	-0.70947	-0.26819	-0.03513	16.4	13111	100
2025-5-24 9:5:38.131	WT901BLE68(801231B9234C)	-0.100	0.746	0.167	-29.419	-20.447	-60.486	77.22	66.44	8.85	41.258	-26.656	-24.598	-0.65067	-0.70947	-0.26819	-0.03513	16.4	13111	100
2025-5-24 9:5:38.191	WT901BLE68(801231B9234C)	-0.134	0.665	0.185	-23.499	-6.104	-18.738	76.62	66.48	9.11	41.258	-26.656	-24.598	-0.65067	-0.70947	-0.26819	-0.03513	16.4	13111	100
2025-5-24 9:5:38.191	WT901BLE68(801231B9234C)	-0.177	0.692	0.174	-7.690	7.446	30.640	77.27	65.67	10.44	41.258	-26.656	-24.598	-0.65067	-0.70947	-0.26819	-0.03513	16.4	13111	100
2025-5-24 9:5:38.221	WT901BLE68(801231B9234C)	-0.229	0.814	0.191	4.700	20.874	83.130	79.02	63.90	12.71	41.258	-26.656	-24.598	-0.68723	-0.49646	-0.46130	0.26141	16.4	13111	100
2025-5-24 9:5:38.222	WT901BLE68(801231B9234C)	-0.252	0.933	0.199	17.761	35.339	139.221	81.55	61.08	15.62	41.258	-26.656	-24.598	-0.68723	-0.49646	-0.46130	0.26141	16.4	13111	100
2025-5-24 9:5:38.251	WT901BLE68(801231B9234C)	-0.314	0.940	0.221	28.442	55.847	189.148	84.50	57.24	18.85	41.258	-26.656	-24.598	-0.68723	-0.49646	-0.46130	0.26141	16.4	13111	100
2025-5-24 9:5:38.251	WT901BLE68(801231B9234C)	-0.408	0.909	0.239	42.480	77.515	221.008	87.64	52.62	22.21	41.258	-26.656	-24.598	-0.68723	-0.49646	-0.46130	0.26141	16.4	13111	100
2025-5-24 9:5:38.310	WT901BLE68(801231B9234C)	-0.446	0.964	0.256	54.077	88.745	241.760	90.70	47.50	25.33	41.258	-26.656	-24.598	-0.68723	-0.49646	-0.46130	0.26141	16.4	13111	100
2025-5-24 9:5:38.310	WT901BLE68(801231B9234C)	-0.415	1.063	0.281	59.265	78.735	258.789	93.18	42.02	27.75	41.258	-26.656	-24.598	-0.68723	-0.49646	-0.46130	0.26141	16.4	13111	100
2025-5-24 9:5:38.340	WT901BLE68(801231B9234C)	-0.370	1.256	0.230	59.509	52.246	274.536	94.90	36.26	29.14	41.258	-26.656	-24.598	-0.68723	-0.49646	-0.46130	0.26141	16.4	13111	100
2025-5-24 9:5:38.340	WT901BLE68(801231B9234C)	-0.339	1.438	0.149	51.453	29.907	286.255	95.93	30.34	29.66	41.258	-26.656	-24.598	-0.68723	-0.49646	-0.46130	0.26141	16.4	13111	100
2025-5-24 9:5:38.371	WT901BLE68(801231B9234C)	-0.302	1.583	0.063	45.105	23.438	294.312	96.60	24.33	29.77	41.258	-26.656	-24.598	-0.68723	-0.49646	-0.46130	0.26141	16.4	13111	100
2025-5-24 9:5:38.372	WT901BLE68(801231B9234C)	-0.251	1.686	0.016	40.894	35.889	298.096	97.21	18.25	29.92	41.258	-26.656	-24.598	-0.68723	-0.49646	-0.46130	0.26141	16.4	13111	100
2025-5-24 9:5:38.851	WT901BLE68(801231B9234C)	-0.208	1.619	-0.001	32.654	68.909	292.786	97.82	12.20	30.51	38.808	-30.968	-22.344	-0.68723	-0.49646	-0.46130	0.26141	16.4	13111	100
2025-5-24 9:5:38.851	WT901BLE68(801231B9234C)	-0.247	1.448	0.006	25.513	120.911	272.156	98.38	6.36	31.99	38.808	-30.968	-22.344	-0.68723	-0.49646	-0.46130	0.26141	16.4	13111	100
2025-5-24 9:5:38.852	WT901BLE68(801231B9234C)	-0.364	1.344	0.013	17.822	167.969	243.103	98.73	0.94	34.46	38.808	-30.968	-22.344	-0.68723	-0.49646	-0.46130	0.26141	16.4	13111	100
2025-5-24 9:5:38.852	WT901BLE68(801231B9234C)	-0.433	1.242	0.029	5.066	192.444	212.463	98.65	-3.93	37.63	38.808	-30.968	-22.344	-0.68723	-0.49646	-0.46130	0.26141	16.4	13111	100
2025-5-24 9:5:38.853	WT901BLE68(801231B9234C)	-0.439	1.180	0.011	-3.235	186.157	184.021	98.10	-8.15	40.98	38.808	-30.968	-22.344	-0.68723	-0.49646	-0.46130	0.26141	16.4	13111	100
2025-5-24 9:5:38.854	WT901BLE68(801231B9234C)	-0.440	1.117	-0.018	-12.390	165.039	157.593	97.23	-11.66	44.07	38.808	-30.968	-22.344	-0.68723	-0.49646	-0.46130	0.26141	16.4	13111	100
2025-5-24 9:5:38.854	WT901BLE68(801231B9234C)	-0.443	1.053	-0.035	-15.076	140.564	133.423	96.20	-14.51	46.75	38.808	-30.968	-22.344	-0.68723	-0.49646	-0.46130	0.26141	16.4	13111	100
2025-5-24 9:5:38.854	WT901BLE68(801231B9234C)	-0.456	1.055	0.015	-16.418	120.056	115.417	95.16	-16.80	48.99	38.808	-30.968	-22.344	-0.68723	-0.49646	-0.46130	0.26141	16.4	13111	100
2025-5-24 9:5:38.855	WT901BLE68(801231B9234C)	-0.455	1.000	0.094	-22.461	105.225	106.995	94.10	-18.74	50.85	38.808	-30.968	-22.344	-0.68723	-0.49646	-0.46130	0.26141	16.4	13111	100
2025-5-24 9:5:38.855	WT901BLE68(801231B9234C)	-0.503	0.858	0.149	-26.978	99.121	106.567	92.96	-20.54	52.46	38.808	-30.968	-22.344	-0.68723	-0.49646	-0.46130	0.26141	16.4	13111	100
2025-5-24 9:5:38.856	WT901BLE68(801231B9234C)	-0.574	0.828	0.186	-24.841	96.863	108.337	91.83	-22.30	53.88	38.808	-30.968	-22.344	-0.68723	-0.49646	-0.46130	0.26141	16.4	13111	100
2025-5-24 9:5:38.856	WT901BLE68(801231B9234C)	-0.641	0.926	0.176	-23.926	93.750	112.854	90.81	-24.09	55.06	38.808	-30.968	-22.344	-0.68723	-0.49646	-0.46130	0.26141	16.4	13111	100
2025-5-24 9:5:38.882	WT901BLE68(801231B9234C)	-0.701	1.028	0.139	-25.940	87.830	113.892	89.85	-25.93	55.98	38.808	-30.968	-22.344	-0.68723	-0.49646	-0.46130	0.26141	16.4	13111	100
2025-5-24 9:5:38.882	WT901BLE68(801231B9234C)	-0.781	1.043	0.106	-26.611	80.566	103.699	88.95	-27.68	56.64	38.808	-30.968	-22.344	-0.68723	-0.49646	-0.46130	0.26141	16.4	13111	100
2025-5-24 9:5:38.883	WT901BLE68(801231B9234C)	-0.785	1.075	0.082	-18.433	73.364	70.313	88.25	-28.94	57.09	38.808	-30.968	-22.344	-0.68723	-0.49646	-0.46130	0.26141	16.4	13111	100
2025-5-24 9:5:38.883	WT901BLE68(801231B9234C)	-0.566	1.100	0.091	-9.949	64.514	26.611	87.85	-29.39	57.33	38.808	-30.968	-22.344	-0.68723	-0.49646	-0.46130	0.26141	16.4	13111	100
2025-5-24 9:5:38.883	WT901BLE68(801231B9234C)	-0.380	1.043	0.057	3.967	49.805	-18.433	87.84	-28.95	57.22	38.808	-30.968	-22.344	-0.68723	-0.49646	-0.46130	0.26141	16.4	13111	100
2025-5-24 9:5:38.883	WT901BLE68(801231B9234C)	-0.408	1.220	0.083	16.846	41.504	-61.401	88.26	-27.63	56.86	38.808	-30.968	-22.344	-0.68723	-0.49646	-0.46130	0.26141	16.4	13111	100
2025-5-24 9:5:38.885	WT901BLE68(801231B9234C)	-0.488	1.217	0.091	15.503	32.349	-89.294	88.79	-25.66	56.34	38.808	-30.968	-22.344	-0.68723	-0.49646	-0.46130	0.26141	16.4	13111	100
2025-5-24 9:5:38.885	WT901BLE68(801231B9234C)	-0.472	1.145	0.110	23.499	15.930	-120.178	89.49	-23.11	55.57	38.808	-30.968	-22.344	-0.68723	-0.49646	-0.46130	0.26141	16.4	13111	100
2025-5-24 9:5:38.885	WT901BLE68(801231B9234C)	-0.454	1.199	0.095	31.799	2.441	-143.677	90.45	-20.03	54.55	38.808	-30.968	-22.344	-0.68723	-0.49646	-0.46130	0.26141	16.4	13111	100
2025-5-24 9:5:38.885	WT901BLE68(801231B9234C)	-0.427	1.163	0.074	34.241	-9.338	-169.128	91.48	-16.48	53.43	38.808	-30.968	-22.344	-0.68723	-0.49646	-0.46130	0.26141	16.4	13111	100
2025-5-24 9:5:38.886	WT901BLE68(801231B9234C)	-0.361	1.212	0.076	43.884	-31.433	-194.641	92.63	-12.39	52.11	38.808	-30.968	-22.344	-0.68723	-0.49646	-0.46130	0.26141	16.4	13111	100
2025-5-24 9:5:38.886	WT901BLE68(801231B9234C)	-0.284	1.427	0.062	52.002	-56.946	-212.952	93.92	-7.84	50.58	38.808	-30.968	-22.344	-0.68723	-0.49646	-0.46130	0.26141	16.4	13111	100
2025-5-24 9:5:38.912	WT901BLE68(801231B9234C)	-0.214	1.573	0.045	47.913	-80.017	-224.121	95.05	-3.00	49.04	21.952	-50.862	-10.584	-0.68723	-0.49646	-0.46130	0.26141	16.4	13111	100
2025-5-24 9:5:38.912	WT901BLE68(801231B9234C)	-0.253	1.772	0.047	40.955	-94.177	-230.774	95.82	1.96	47.65	21.952	-50.862	-10.584	-0.68723	-0.49646	-0.46130	0.26141	16.4	13111	100
2025-5-24 9:5:38.941	WT901BLE68(801231B9234C)	-0.239	1.583	0.071	38.269	-105.530	-232.971	96.37	6.93	46.29	21.952	-50.862	-10.584	-0.68723	-0.49646	-0.46130	0.26141	16.4	13111	100
2025-5-24 9:5:38.941	WT901BLE68(801231B9234C)	-0.215	1.566	0.088	35.095	-112.366	-232.544	96.72	11.85	44.88	21.952	-50.862	-10.584	-0.68723	-0.49646	-0.46130	0.26141	16.4	13111	100
2025-5-24 9:5:39.0	WT901BLE68(801231B9234C)	-0.170	1.458	0.122	30.334	-115.051	-234.680	96.84	16.74	43.46	21.952	-50.862	-10.584	-0.68723	-0.49646	-0.46130	0.26141	16.4	13111	100
2025-5-24 9:5:39.1	WT901BLE68(801231B9234C)	-0.098	1.324	0.107	25.330	-116.333	-235.229	96.69	21.60	42.00	21.952	-50.862	-10.584	-0.68723	-0.49646	-0.46130	0.26141	16.4	13111	100
2025-5-24 9:5:39.32	WT901BLE68(801231B9234C)	-0.116	1.172	0.134	21.179	-109.985	-232.727	96.35	26.33	40.57	21.952	-50.862	-10.584	-0.66632	-0.62949	-0.39526	-0.05859	16.4	13111	100
2025-5-24 9:5:39.32	WT901BLE68(801231B9234C)	-0.139	1.114	0.194	12.756	-107.361	-231.018	95.76	30.95	39.16	21.952	-50.862	-10.584	-0.66632	-0.62949	-0.39526	-0.05859	16.4	13111	100
2025-5-24 9:5:39.60	WT901BLE68(801231B9234C)	-0.092	1.038	0.198	6.165	-113.525	-223.816	94.78	35.38	37.53	21.952	-50.862	-10.584	-0.66632	-0.62949	-0.39526	-0.05859	16.4	13111	100
2025-5-24 9:5:39.61	WT901BLE68(801231B9234C)	-0.030	0.910	0.173	-2.319	-118.896	-215.454	93.28	39.57	35.51	21.952	-50.862	-10.584	-0.66632	-0.62949	-0.39526	-0.05859	16.4	13111	100
2025-5-24 9:5:39.120	WT901BLE68(801231B9234C)	-0.032	0.782	0.162	-7.813	-110.840	-205.933	91.40	43.47	33.26	21.952	-50.862	-10.584	-0.66632	-0.62949	-0.39526	-0.05859	16.4	13111	100
2025-5-24 9:5:39.121	WT901BLE68(801231B9234C)	-0.052	0.725	0.198	-12.878	-95.703	-192.810	89.32	47.03	31.05	21.952	-50.862	-10.584	-0.66632	-0.62949	-0.39526	-0.05859	16.4	13111	100
2025-5-24 9:5:39.151	WT901BLE68(801231B9234C)	-0.028	0.715	0.181	-20.874	-85.327	-170.227	87.06	50.10	28.87	21.952	-50.862	-10.584	-0.66632	-0.62949	-0.39526	-0.05859	16.4	13111	100
2025-5-24 9:5:39.151	WT901BLE68(801231B9234C)	-0.004	0.619	0.156	-32.532	-70.923	-144.226	84.58	52.57	26.78	21.952	-50.862	-10.584	-0.66632	-0.62949	-0.39526	-0.05859	16.4	13111	100
2025-5-24 9:5:39.181	WT901BLE68(801231B9234C)	-0.039	0.496	0.135	-36.804	-47.058	-115.723	82.28	54.44	25.15	21.952	-50.862	-10.584	-0.66632	-0.62949	-0.39526	-0.05859	16.4	13111	100
2025-5-24 9:5:39.182	WT901BLE68(801231B9234C)	-0.110	0.445	0.127	-32.837	-15.747	-84.717	80.77	55.73	24.47	21.952	-50.862	-10.584	-0.66632	-0.62949	-0.39526	-0.05859	16.4	13111	100
2025-5-24 9:5:39.241	WT901BLE68(801231B9234C)	-0.180	0.464	0.126	-26.306	8.911	-51.147	80.24	56.45	24.86	46.452	-10.486	-23.716	-0.66632	-0.62949	-0.39526	-0.05859	16.4	13111	100
2025-5-24 9:5:39.242	WT901BLE68(801231B9234C)	-0.258	0.520	0.124	-19.775	24.414	-11.353	80.52	56.50	26.05	46.452	-10.486	-23.716	-0.66632	-0.62949	-0.39526	-0.05859	16.4	13111	100
2025-5-24 9:5:39.271	WT901BLE68(801231B9234C)	-0.346	0.554	0.143	-13.733	33.630	32.227	81.38	55.74	27.82	46.452	-10.486	-23.716	-0.66632	-0.62949	-0.39526	-0.05859	16.4	13111	100
2025-5-24 9:5:39.271	WT901BLE68(801231B9234C)	-0.458	0.574	0.188	-5.371	37.231	77.881	82.60	54.15	29.87	46.452	-10.486	-23.716	-0.66632	-0.62949	-0.39526	-0.05859	16.4	13111	100
2025-5-24 9:5:39.300	WT901BLE68(801231B9234C)	-0.511	0.711	0.225	6.958	37.354	125.427	83.98	51.64	31.93	46.452	-10.486	-23.716	-0.66632	-0.62949	-0.39526	-0.05859	16.4	13111	100
2025-5-24 9:5:39.300	WT901BLE68(801231B9234C)	-0.486	0.947	0.202	22.827	39.978	172.302	85.50	48.26	33.89	46.452	-10.486	-23.716	-0.66632	-0.62949	-0.39526	-0.05859	16.4	13111	100
2025-5-24 9:5:39.360	WT901BLE68(801231B9234C)	-0.473	1.125	0.167	34.485	42.725	215.698	87.12	44.01	35.74	46.452	-10.486	-23.716	-0.66632	-0.62949	-0.39526	-0.05859	16.4	13111	100
2025-5-24 9:5:39.361	WT901BLE68(801231B9234C)	-0.507	1.221	0.192	51.575	54.565	237.793	88.92	39.15	37.52	46.452	-10.486	-23.716	-0.66632	-0.62949	-0.39526	-0.05859	16.4	13111	100
2025-5-24 9:5:39.394	WT901BLE68(801231B9234C)	-0.500	1.307	0.297	63.232	64.209	244.751	90.87	34.10	39.28	46.452	-10.486	-23.716	-0.66632	-0.62949	-0.39526	-0.05859	16.4	13111	100
2025-5-24 9:5:39.394	WT901BLE68(801231B9234C)	-0.529	1.287	0.402	67.505	57.861	247.925	92.67	28.95	40.77	46.452	-10.486	-23.716	-0.66632	-0.62949	-0.39526	-0.05859	16.4	13111	100
2025-5-24 9:5:39.421	WT901BLE68(801231B9234C)	-0.495	1.337	0.430	66.833	31.616	240.723	94.08	23.94	41.63	46.452	-10.486	-23.716	-0.66632	-0.62949	-0.39526	-0.05859	16.4	13111	100
2025-5-24 9:5:39.421	WT901BLE68(801231B9234C)	-0.400	1.425	0.391	56.519	-1.953	231.689	94.99	19.21	41.70	46.452	-10.486	-23.716	-0.66257	-0.64389	-0.36185	-0.12399	16.4	13111	100
2025-5-24 9:5:39.480	WT901BLE68(801231B9234C)	-0.279	1.480	0.325	40.405	-24.475	217.346	95.43	14.80	41.20	46.452	-10.486	-23.716	-0.66257	-0.64389	-0.36185	-0.12399	16.4	13111	100
2025-5-24 9:5:39.481	WT901BLE68(801231B9234C)	-0.130	1.543	0.228	25.391	-20.447	198.242	95.60	10.78	40.60	46.452	-10.486	-23.716	-0.66257	-0.64389	-0.36185	-0.12399	16.4	13111	100
2025-5-24 9:5:39.510	WT901BLE68(801231B9234C)	-0.055	1.447	0.178	9.766	27.771	174.194	95.62	7.18	40.68	46.452	-10.486	-23.716	-0.66257	-0.64389	-0.36185	-0.12399	16.4	13111	100
2025-5-24 9:5:39.511	WT901BLE68(801231B9234C)	-0.125	1.222	0.183	-3.174	104.187	142.822	95.50	4.00	42.19	46.452	-10.486	-23.716	-0.66257	-0.64389	-0.36185	-0.12399	16.4	13111	100
2025-5-24 9:5:39.571	WT901BLE68(801231B9234C)	-0.235	1.001	0.180	-15.869	173.645	107.910	95.15	1.38	45.24	46.452	-10.486	-23.716	-0.66257	-0.64389	-0.36185	-0.12399	16.4	13111	100
2025-5-24 9:5:39.571	WT901BLE68(801231B9234C)	-0.352	0.831	0.171	-25.269	212.280	82.336	94.48	-0.70	49.38	46.452	-10.486	-23.716	-0.66257	-0.64389	-0.36185	-0.12399	16.4	13111	100
2025-5-24 9:5:39.601	WT901BLE68(801231B9234C)	-0.427	0.759	0.096	-33.447	209.717	66.711	93.50	-2.32	53.79	46.452	-10.486	-23.716	-0.66257	-0.64389	-0.36185	-0.12399	16.4	13111	100
2025-5-24 9:5:39.602	WT901BLE68(801231B9234C)	-0.466	0.720	0.062	-40.710	177.673	61.462	92.32	-3.62	57.77	46.452	-10.486	-23.716	-0.66257	-0.64389	-0.36185	-0.12399	16.4	13111	100
2025-5-24 9:5:39.631	WT901BLE68(801231B9234C)	-0.454	0.722	0.051	-42.908	130.554	67.993	91.06	-4.79	60.89	46.452	-10.486	-23.716	-0.66257	-0.64389	-0.36185	-0.12399	16.4	13111	100
2025-5-24 9:5:39.631	WT901BLE68(801231B9234C)	-0.424	0.746	0.064	-41.748	88.501	82.092	89.85	-6.05	63.08	31.066	-45.962	-10.584	-0.66257	-0.64389	-0.36185	-0.12399	16.4	13111	100
2025-5-24 9:5:39.661	WT901BLE68(801231B9234C)	-0.410	0.771	0.092	-34.912	63.293	98.022	88.78	-7.54	64.64	31.066	-45.962	-10.584	-0.66257	-0.64389	-0.36185	-0.12399	16.4	13111	100
2025-5-24 9:5:39.661	WT901BLE68(801231B9234C)	-0.391	0.743	0.113	-30.579	53.101	110.657	87.84	-9.27	65.92	31.066	-45.962	-10.584	-0.66257	-0.64389	-0.36185	-0.12399	16.4	13111	100
2025-5-24 9:5:39.720	WT901BLE68(801231B9234C)	-0.425	0.696	0.142	-19.836	53.040	121.826	87.05	-11.20	67.18	31.066	-45.962	-10.584	-0.66257	-0.64389	-0.36185	-0.12399	16.4	13111	100
2025-5-24 9:5:39.721	WT901BLE68(801231B9234C)	-0.444	0.698	0.189	-13.794	52.063	123.657	86.37	-13.18	68.50	31.066	-45.962	-10.584	-0.66257	-0.64389	-0.36185	-0.12399	16.4	13111	100
2025-5-24 9:5:39.750	WT901BLE68(801231B9234C)	-0.461	0.752	0.220	-10.254	39.001	125.000	85.67	-15.17	69.91	31.066	-45.962	-10.584	-0.66257	-0.64389	-0.36185	-0.12399	16.4	13111	100
2025-5-24 9:5:39.751	WT901BLE68(801231B9234C)	-0.451	0.879	0.242	-5.798	25.391	119.995	84.85	-17.31	71.82	31.066	-45.962	-10.584	-0.66257	-0.64389	-0.36185	-0.12399	16.4	13111	100
2025-5-24 9:5:39.781	WT901BLE68(801231B9234C)	-0.407	1.012	0.230	-6.042	13.611	106.079	83.97	-19.41	73.78	31.066	-45.962	-10.584	-0.66257	-0.64389	-0.36185	-0.12399	16.4	13111	100
2025-5-24 9:5:39.781	WT901BLE68(801231B9234C)	-0.372	1.109	0.179	-6.042	13.855	82.458	83.10	-21.18	75.69	31.066	-45.962	-10.584	-0.66257	-0.64389	-0.36185	-0.12399	16.4	13111	100
2025-5-24 9:5:39.901	WT901BLE68(801231B9234C)	-0.351	1.125	0.144	-1.282	31.555	46.570	82.19	-22.31	77.83	31.066	-45.962	-10.584	-0.48535	-0.59305	-0.29370	-0.57129	16.4	13111	100
2025-5-24 9:5:39.901	WT901BLE68(801231B9234C)	-0.373	1.171	0.177	1.648	50.293	2.014	81.23	-22.55	80.33	31.066	-45.962	-10.584	-0.48535	-0.59305	-0.29370	-0.57129	16.4	13111	100
2025-5-24 9:5:39.902	WT901BLE68(801231B9234C)	-0.453	1.290	0.192	4.822	50.354	-35.889	80.33	-21.91	82.86	31.066	-45.962	-10.584	-0.48535	-0.59305	-0.29370	-0.57129	16.4	13111	100
2025-5-24 9:5:39.902	WT901BLE68(801231B9234C)	-0.509	1.271	0.208	10.010	30.273	-62.866	79.71	-20.69	85.00	31.066	-45.962	-10.584	-0.48535	-0.59305	-0.29370	-0.57129	16.4	13111	100
2025-5-24 9:5:39.930	WT901BLE68(801231B9234C)	-0.455	1.248	0.200	18.738	-12.207	-79.102	79.57	-19.16	86.29	31.066	-45.962	-10.584	-0.48535	-0.59305	-0.29370	-0.57129	16.4	13111	100
2025-5-24 9:5:39.931	WT901BLE68(801231B9234C)	-0.363	1.204	0.179	21.606	-51.086	-90.942	79.84	-17.52	86.63	31.066	-45.962	-10.584	-0.48535	-0.59305	-0.29370	-0.57129	16.4	13111	100
2025-5-24 9:5:39.960	WT901BLE68(801231B9234C)	-0.311	1.150	0.165	21.790	-73.914	-110.474	80.33	-15.61	86.33	31.066	-45.962	-10.584	-0.48535	-0.59305	-0.29370	-0.57129	16.4	13111	100
2025-5-24 9:5:39.960	WT901BLE68(801231B9234C)	-0.318	1.159	0.134	21.912	-89.111	-128.967	81.06	-13.15	85.07	31.066	-45.962	-10.584	-0.48535	-0.59305	-0.29370	-0.57129	16.4	13111	100
2025-5-24 9:5:39.992	WT901BLE68(801231B9234C)	-0.347	1.185	0.115	22.949	-103.577	-139.282	81.97	-10.36	82.84	31.066	-45.962	-10.584	-0.48535	-0.59305	-0.29370	-0.57129	16.4	13111	100
2025-5-24 9:5:39.992	WT901BLE68(801231B9234C)	-0.346	1.251	0.108	24.475	-125.183	-141.663	82.88	-7.51	80.18	31.066	-45.962	-10.584	-0.48535	-0.59305	-0.29370	-0.57129	16.4	13111	100
2025-5-24 9:5:40.52	WT901BLE68(801231B9234C)	-0.324	1.328	0.067	24.170	-148.071	-137.146	83.70	-4.76	77.09	25.284	-49.980	-8.330	-0.48535	-0.59305	-0.29370	-0.57129	16.4	13111	100
2025-5-24 9:5:40.52	WT901BLE68(801231B9234C)	-0.286	1.341	0.023	23.315	-163.696	-131.409	84.41	-2.15	73.65	25.284	-49.980	-8.330	-0.48535	-0.59305	-0.29370	-0.57129	16.4	13111	100
2025-5-24 9:5:40.80	WT901BLE68(801231B9234C)	-0.206	1.281	0.032	21.057	-168.640	-131.409	84.94	0.39	70.07	25.284	-49.980	-8.330	-0.48535	-0.59305	-0.29370	-0.57129	16.4	13111	100
2025-5-24 9:5:40.80	WT901BLE68(801231B9234C)	-0.146	1.148	0.045	16.174	-164.063	-136.536	85.23	2.97	66.54	25.284	-49.980	-8.330	-0.48535	-0.59305	-0.29370	-0.57129	16.4	13111	100
2025-5-24 9:5:40.110	WT901BLE68(801231B9234C)	-0.143	1.044	0.055	8.301	-152.405	-146.973	85.23	5.71	63.21	25.284	-49.980	-8.330	-0.48535	-0.59305	-0.29370	-0.57129	16.4	13111	100
2025-5-24 9:5:40.111	WT901BLE68(801231B9234C)	-0.158	0.974	0.053	3.113	-139.038	-155.823	84.97	8.63	60.14	25.284	-49.980	-8.330	-0.48535	-0.59305	-0.29370	-0.57129	16.4	13111	100
2025-5-24 9:5:40.171	WT901BLE68(801231B9234C)	-0.166	0.934	0.072	-1.892	-127.380	-160.095	84.50	11.61	57.29	25.284	-49.980	-8.330	-0.48535	-0.59305	-0.29370	-0.57129	16.4	13111	100
2025-5-24 9:5:40.171	WT901BLE68(801231B9234C)	-0.168	0.906	0.097	-6.653	-122.253	-159.790	83.81	14.56	54.56	25.284	-49.980	-8.330	-0.48535	-0.59305	-0.29370	-0.57129	16.4	13111	100
2025-5-24 9:5:40.201	WT901BLE68(801231B9234C)	-0.175	0.922	0.111	-12.451	-119.690	-156.006	82.88	17.40	51.86	25.284	-49.980	-8.330	-0.48535	-0.59305	-0.29370	-0.57129	16.4	13111	100
2025-5-24 9:5:40.201	WT901BLE68(801231B9234C)	-0.153	0.953	0.127	-19.043	-117.493	-148.376	81.68	20.03	49.14	25.284	-49.980	-8.330	-0.48535	-0.59305	-0.29370	-0.57129	16.4	13111	100
2025-5-24 9:5:40.230	WT901BLE68(801231B9234C)	-0.122	0.965	0.132	-26.672	-112.854	-137.756	80.25	22.38	46.44	25.284	-49.980	-8.330	-0.48535	-0.59305	-0.29370	-0.57129	16.4	13111	100
2025-5-24 9:5:40.231	WT901BLE68(801231B9234C)	-0.057	0.957	0.137	-34.973	-101.379	-129.517	78.61	24.48	43.87	25.284	-49.980	-8.330	-0.75189	-0.51578	-0.38055	-0.15396	16.4	13111	100
2025-5-24 9:5:40.291	WT901BLE68(801231B9234C)	-0.015	0.912	0.148	-41.321	-80.872	-123.718	76.87	26.42	41.62	25.284	-49.980	-8.330	-0.75189	-0.51578	-0.38055	-0.15396	16.4	13111	100
2025-5-24 9:5:40.291	WT901BLE68(801231B9234C)	-0.029	0.900	0.157	-46.143	-51.147	-122.681	75.21	28.31	39.86	25.284	-49.980	-8.330	-0.75189	-0.51578	-0.38055	-0.15396	16.4	13111	100
2025-5-24 9:5:40.320	WT901BLE68(801231B9234C)	-0.056	0.940	0.161	-49.438	-19.226	-123.474	73.72	30.29	38.73	25.284	-49.980	-8.330	-0.75189	-0.51578	-0.38055	-0.15396	16.4	13111	100
2025-5-24 9:5:40.321	WT901BLE68(801231B9234C)	-0.077	1.007	0.178	-50.659	4.272	-118.347	72.45	32.32	38.16	25.284	-49.980	-8.330	-0.75189	-0.51578	-0.38055	-0.15396	16.4	13111	100
2025-5-24 9:5:40.351	WT901BLE68(801231B9234C)	-0.080	1.081	0.157	-49.561	13.733	-105.408	71.34	34.21	37.91	25.284	-49.980	-8.330	-0.75189	-0.51578	-0.38055	-0.15396	16.4	13111	100
2025-5-24 9:5:40.351	WT901BLE68(801231B9234C)	-0.084	1.055	0.158	-43.091	16.724	-82.458	70.45	35.73	37.88	25.284	-49.980	-8.330	-0.75189	-0.51578	-0.38055	-0.15396	16.4	13111	100
2025-5-24 9:5:40.412	WT901BLE68(801231B9234C)	-0.098	0.992	0.168	-33.325	15.381	-52.063	69.85	36.71	38.05	25.284	-49.980	-8.330	-0.75189	-0.51578	-0.38055	-0.15396	16.4	13111	100
2025-5-24 9:5:40.412	WT901BLE68(801231B9234C)	-0.107	0.984	0.170	-19.958	15.259	-13.367	69.65	37.00	38.48	25.284	-49.980	-8.330	-0.75189	-0.51578	-0.38055	-0.15396	16.4	13111	100
2025-5-24 9:5:40.440	WT901BLE68(801231B9234C)	-0.126	0.976	0.182	-2.502	20.508	30.334	70.01	36.52	39.33	25.284	-49.980	-8.330	-0.75189	-0.51578	-0.38055	-0.15396	16.4	13111	100
2025-5-24 9:5:40.441	WT901BLE68(801231B9234C)	-0.138	0.926	0.209	16.846	30.151	73.364	71.02	35.28	40.69	42.336	-17.542	-27.636	-0.75189	-0.51578	-0.38055	-0.15396	16.4	13111	100
2025-5-24 9:5:40.472	WT901BLE68(801231B9234C)	-0.160	0.847	0.238	38.330	40.405	115.234	72.65	33.30	42.50	42.336	-17.542	-27.636	-0.75189	-0.51578	-0.38055	-0.15396	16.4	13111	100
2025-5-24 9:5:40.472	WT901BLE68(801231B9234C)	-0.142	0.794	0.274	57.556	48.279	147.217	74.76	30.66	44.62	42.336	-17.542	-27.636	-0.75189	-0.51578	-0.38055	-0.15396	16.4	13111	100
2025-5-24 9:5:40.530	WT901BLE68(801231B9234C)	-0.191	0.793	0.294	79.285	53.467	174.133	77.18	27.45	46.81	42.336	-17.542	-27.636	-0.75189	-0.51578	-0.38055	-0.15396	16.4	13111	100
2025-5-24 9:5:40.531	WT901BLE68(801231B9234C)	-0.255	0.947	0.336	88.745	47.791	193.176	79.70	23.79	48.88	42.336	-17.542	-27.636	-0.75189	-0.51578	-0.38055	-0.15396	16.4	13111	100
2025-5-24 9:5:40.560	WT901BLE68(801231B9234C)	-0.243	1.192	0.345	86.548	22.400	210.693	81.91	19.69	50.41	42.336	-17.542	-27.636	-0.75189	-0.51578	-0.38055	-0.15396	16.4	13111	100
2025-5-24 9:5:40.560	WT901BLE68(801231B9234C)	-0.145	1.359	0.281	70.923	-10.864	224.854	83.53	15.23	51.11	42.336	-17.542	-27.636	-0.75189	-0.51578	-0.38055	-0.15396	16.4	13111	100
2025-5-24 9:5:40.591	WT901BLE68(801231B9234C)	-0.098	1.425	0.208	63.171	-19.836	227.722	84.75	10.62	51.32	42.336	-17.542	-27.636	-0.75189	-0.51578	-0.38055	-0.15396	16.4	13111	100
2025-5-24 9:5:40.592	WT901BLE68(801231B9234C)	-0.072	1.443	0.135	58.289	-1.526	223.145	85.86	6.12	51.59	42.336	-17.542	-27.636	-0.75189	-0.51578	-0.38055	-0.15396	16.4	13111	100
2025-5-24 9:5:40.652	WT901BLE68(801231B9234C)	-0.081	1.339	0.119	53.162	38.208	214.294	86.90	1.83	52.41	42.336	-17.542	-27.636	-0.63687	-0.62561	-0.30338	-0.33295	16.4	13111	100
2025-5-24 9:5:40.652	WT901BLE68(801231B9234C)	-0.167	1.203	0.175	46.875	81.848	197.449	87.76	-2.11	53.99	42.336	-17.542	-27.636	-0.63687	-0.62561	-0.30338	-0.33295	16.4	13111	100
2025-5-24 9:5:40.680	WT901BLE68(801231B9234C)	-0.282	1.085	0.241	38.879	112.061	177.124	88.32	-5.64	56.24	42.336	-17.542	-27.636	-0.63687	-0.62561	-0.30338	-0.33295	16.4	13111	100
2025-5-24 9:5:40.680	WT901BLE68(801231B9234C)	-0.354	0.968	0.263	29.602	115.417	160.339	88.54	-8.75	58.72	42.336	-17.542	-27.636	-0.63687	-0.62561	-0.30338	-0.33295	16.4	13111	100
2025-5-24 9:5:40.741	WT901BLE68(801231B9234C)	-0.368	0.885	0.261	22.644	100.586	144.531	88.49	-11.49	61.02	42.336	-17.542	-27.636	-0.63687	-0.62561	-0.30338	-0.33295	16.4	13111	100
2025-5-24 9:5:40.741	WT901BLE68(801231B9234C)	-0.390	0.861	0.233	17.761	77.026	130.371	88.33	-13.88	62.90	42.336	-17.542	-27.636	-0.63687	-0.62561	-0.30338	-0.33295	16.4	13111	100
2025-5-24 9:5:40.770	WT901BLE68(801231B9234C)	-0.420	0.869	0.237	13.794	51.086	117.981	88.14	-15.97	64.24	42.336	-17.542	-27.636	-0.63687	-0.62561	-0.30338	-0.33295	16.4	13111	100
2025-5-24 9:5:40.771	WT901BLE68(801231B9234C)	-0.413	0.912	0.285	9.277	28.137	106.567	87.98	-17.78	65.06	42.336	-17.542	-27.636	-0.63687	-0.62561	-0.30338	-0.33295	16.4	13111	100
2025-5-24 9:5:40.831	WT901BLE68(801231B9234C)	-0.390	0.918	0.332	4.639	18.311	96.985	87.81	-19.36	65.56	42.336	-17.542	-27.636	-0.63687	-0.62561	-0.30338	-0.33295	16.4	13111	100
2025-5-24 9:5:40.831	WT901BLE68(801231B9234C)	-0.369	0.911	0.381	0.366	19.653	84.656	87.52	-20.68	66.03	42.336	-17.542	-27.636	-0.63687	-0.62561	-0.30338	-0.33295	16.4	13111	100
2025-5-24 9:5:40.860	WT901BLE68(801231B9234C)	-0.385	0.885	0.410	-5.371	30.823	70.923	86.89	-21.82	67.21	42.336	-17.542	-27.636	-0.63687	-0.62561	-0.30338	-0.33295	16.4	13111	100
2025-5-24 9:5:40.861	WT901BLE68(801231B9234C)	-0.465	0.841	0.409	-10.437	42.358	54.749	85.80	-22.97	69.49	16.660	-51.450	-14.700	-0.63687	-0.62561	-0.30338	-0.33295	16.4	13111	100
2025-5-24 9:5:40.920	WT901BLE68(801231B9234C)	-0.527	0.884	0.410	-12.939	44.006	36.743	84.55	-23.81	72.00	16.660	-51.450	-14.700	-0.63687	-0.62561	-0.30338	-0.33295	16.4	13111	100
2025-5-24 9:5:40.921	WT901BLE68(801231B9234C)	-0.502	0.970	0.387	-16.968	29.968	20.081	83.28	-24.32	74.34	16.660	-51.450	-14.700	-0.63687	-0.62561	-0.30338	-0.33295	16.4	13111	100
2025-5-24 9:5:40.921	WT901BLE68(801231B9234C)	-0.441	0.987	0.347	-21.484	13.428	0.183	82.07	-24.52	76.28	16.660	-51.450	-14.700	-0.63687	-0.62561	-0.30338	-0.33295	16.4	13111	100
2025-5-24 9:5:40.921	WT901BLE68(801231B9234C)	-0.367	1.051	0.295	-21.484	5.676	-25.818	80.96	-24.26	77.90	16.660	-51.450	-14.700	-0.63687	-0.62561	-0.30338	-0.33295	16.4	13111	100
2025-5-24 9:5:40.950	WT901BLE68(801231B9234C)	-0.338	1.064	0.261	-23.865	8.179	-51.331	79.90	-23.49	79.42	16.660	-51.450	-14.700	-0.63687	-0.62561	-0.30338	-0.33295	16.4	13111	100
2025-5-24 9:5:40.951	WT901BLE68(801231B9234C)	-0.337	1.123	0.228	-20.203	12.268	-79.529	79.74	-22.06	78.65	16.660	-51.450	-14.700	-0.63687	-0.62561	-0.30338	-0.33295	16.4	13111	100
2025-5-24 9:5:41.12	WT901BLE68(801231B9234C)	-0.336	1.302	0.184	-16.357	15.381	-101.135	79.93	-20.02	77.15	16.660	-51.450	-14.700	-0.63687	-0.62561	-0.30338	-0.33295	16.4	13111	100
2025-5-24 9:5:41.12	WT901BLE68(801231B9234C)	-0.363	1.389	0.145	-16.357	16.418	-115.051	80.02	-17.57	75.77	16.660	-51.450	-14.700	-0.63687	-0.62561	-0.30338	-0.33295	16.4	13111	100
2025-5-24 9:5:41.40	WT901BLE68(801231B9234C)	-0.370	1.419	0.110	-12.573	10.742	-125.977	80.07	-14.82	74.58	16.660	-51.450	-14.700	-0.63687	-0.62561	-0.30338	-0.33295	16.4	13111	100
2025-5-24 9:5:41.41	WT901BLE68(801231B9234C)	-0.351	1.342	0.084	-9.521	-2.563	-132.263	80.14	-11.93	73.42	16.660	-51.450	-14.700	-0.57358	-0.56244	-0.32352	-0.49988	16.4	13111	100
2025-5-24 9:5:41.71	WT901BLE68(801231B9234C)	-0.338	1.227	0.052	-2.869	-22.217	-140.137	80.32	-8.98	72.04	16.660	-51.450	-14.700	-0.57358	-0.56244	-0.32352	-0.49988	16.4	13111	100
2025-5-24 9:5:41.72	WT901BLE68(801231B9234C)	-0.354	1.191	0.027	6.409	-44.922	-147.705	80.66	-5.95	70.34	16.660	-51.450	-14.700	-0.57358	-0.56244	-0.32352	-0.49988	16.4	13111	100
2025-5-24 9:5:41.130	WT901BLE68(801231B9234C)	-0.363	1.207	0.016	13.916	-72.021	-152.039	81.13	-2.92	68.24	16.660	-51.450	-14.700	-0.57358	-0.56244	-0.32352	-0.49988	16.4	13111	100
2025-5-24 9:5:41.131	WT901BLE68(801231B9234C)	-0.352	1.191	-0.005	18.250	-106.628	-151.672	81.62	0.03	65.62	16.660	-51.450	-14.700	-0.57358	-0.56244	-0.32352	-0.49988	16.4	13111	100
2025-5-24 9:5:41.161	WT901BLE68(801231B9234C)	-0.324	1.214	-0.026	22.400	-138.916	-148.987	82.07	2.84	62.41	16.660	-51.450	-14.700	-0.57358	-0.56244	-0.32352	-0.49988	16.4	13111	100
2025-5-24 9:5:41.161	WT901BLE68(801231B9234C)	-0.272	1.283	-0.032	22.949	-160.767	-145.508	82.39	5.50	58.76	16.660	-51.450	-14.700	-0.57358	-0.56244	-0.32352	-0.49988	16.4	13111	100
2025-5-24 9:5:41.190	WT901BLE68(801231B9234C)	-0.203	1.317	-0.026	17.090	-169.739	-141.846	82.45	8.04	54.91	16.660	-51.450	-14.700	-0.57358	-0.56244	-0.32352	-0.49988	16.4	13111	100
2025-5-24 9:5:41.190	WT901BLE68(801231B9234C)	-0.140	1.267	-0.016	6.470	-165.222	-142.944	82.16	10.51	51.09	16.660	-51.450	-14.700	-0.57358	-0.56244	-0.32352	-0.49988	16.4	13111	100
2025-5-24 9:5:41.251	WT901BLE68(801231B9234C)	-0.103	1.188	-0.020	-3.418	-146.606	-148.682	81.56	13.02	47.54	16.660	-51.450	-14.700	-0.57358	-0.56244	-0.32352	-0.49988	16.4	13111	100
2025-5-24 9:5:41.251	WT901BLE68(801231B9234C)	-0.087	1.099	-0.022	-10.437	-119.873	-157.104	80.75	15.68	44.46	16.660	-51.450	-14.700	-0.57358	-0.56244	-0.32352	-0.49988	16.4	13111	100
2025-5-24 9:5:41.281	WT901BLE68(801231B9234C)	-0.089	1.036	0.012	-13.062	-91.553	-164.795	79.87	18.49	41.88	32.830	-39.396	-22.638	-0.57358	-0.56244	-0.32352	-0.49988	16.4	13111	100
2025-5-24 9:5:41.281	WT901BLE68(801231B9234C)	-0.104	0.999	0.071	-15.503	-66.345	-171.936	78.97	21.46	39.79	32.830	-39.396	-22.638	-0.57358	-0.56244	-0.32352	-0.49988	16.4	13111	100
2025-5-24 9:5:41.340	WT901BLE68(801231B9234C)	-0.093	0.966	0.112	-20.264	-51.575	-177.002	78.01	24.53	38.02	32.830	-39.396	-22.638	-0.57358	-0.56244	-0.32352	-0.49988	16.4	13111	100
2025-5-24 9:5:41.340	WT901BLE68(801231B9234C)	-0.077	0.926	0.116	-24.902	-39.429	-179.443	76.92	27.66	36.43	32.830	-39.396	-22.638	-0.57358	-0.56244	-0.32352	-0.49988	16.4	13111	100
2025-5-24 9:5:41.371	WT901BLE68(801231B9234C)	-0.100	0.884	0.116	-27.100	-25.024	-179.138	75.78	30.79	35.04	32.830	-39.396	-22.638	-0.57358	-0.56244	-0.32352	-0.49988	16.4	13111	100
2025-5-24 9:5:41.372	WT901BLE68(801231B9234C)	-0.139	0.861	0.142	-26.550	-13.245	-174.866	74.70	33.87	33.89	32.830	-39.396	-22.638	-0.57358	-0.56244	-0.32352	-0.49988	16.4	13111	100
2025-5-24 9:5:41.402	WT901BLE68(801231B9234C)	-0.145	0.847	0.168	-26.062	-11.353	-165.100	73.61	36.77	32.84	32.830	-39.396	-22.638	-0.57358	-0.56244	-0.32352	-0.49988	16.4	13111	100
2025-5-24 9:5:41.403	WT901BLE68(801231B9234C)	-0.134	0.811	0.190	-27.405	-17.090	-152.039	72.40	39.38	31.70	32.830	-39.396	-22.638	-0.57358	-0.56244	-0.32352	-0.49988	16.4	13111	100
2025-5-24 9:5:41.460	WT901BLE68(801231B9234C)	-0.128	0.811	0.208	-26.306	-23.987	-134.521	71.04	41.59	30.41	32.830	-39.396	-22.638	-0.78931	-0.44565	-0.42215	0.00867	16.4	13111	100
2025-5-24 9:5:41.460	WT901BLE68(801231B9234C)	-0.102	0.884	0.196	-24.658	-28.870	-111.511	69.63	43.34	29.06	32.830	-39.396	-22.638	-0.78931	-0.44565	-0.42215	0.00867	16.4	13111	100
2025-5-24 9:5:41.491	WT901BLE68(801231B9234C)	-0.046	0.921	0.163	-24.902	-27.405	-82.947	68.31	44.52	27.87	32.830	-39.396	-22.638	-0.78931	-0.44565	-0.42215	0.00867	16.4	13111	100
2025-5-24 9:5:41.491	WT901BLE68(801231B9234C)	-0.023	0.847	0.153	-22.278	-13.794	-51.270	67.35	45.16	27.17	32.830	-39.396	-22.638	-0.78931	-0.44565	-0.42215	0.00867	16.4	13111	100
2025-5-24 9:5:41.520	WT901BLE68(801231B9234C)	-0.048	0.752	0.154	-11.353	10.803	-17.334	67.14	45.34	27.36	32.830	-39.396	-22.638	-0.78931	-0.44565	-0.42215	0.00867	16.4	13111	100
2025-5-24 9:5:41.520	WT901BLE68(801231B9234C)	-0.120	0.799	0.125	11.230	41.565	24.719	68.13	44.99	28.69	32.830	-39.396	-22.638	-0.78931	-0.44565	-0.42215	0.00867	16.4	13111	100
2025-5-24 9:5:41.580	WT901BLE68(801231B9234C)	-0.187	0.895	0.106	29.968	67.200	75.256	70.32	43.93	31.18	32.830	-39.396	-22.638	-0.78931	-0.44565	-0.42215	0.00867	16.4	13111	100
2025-5-24 9:5:41.580	WT901BLE68(801231B9234C)	-0.229	0.927	0.126	47.974	86.243	127.502	73.36	41.96	34.48	32.830	-39.396	-22.638	-0.78931	-0.44565	-0.42215	0.00867	16.4	13111	100
2025-5-24 9:5:41.611	WT901BLE68(801231B9234C)	-0.268	0.938	0.151	67.200	99.121	179.565	76.92	38.95	38.20	32.830	-39.396	-22.638	-0.78931	-0.44565	-0.42215	0.00867	16.4	13111	100
2025-5-24 9:5:41.612	WT901BLE68(801231B9234C)	-0.323	0.955	0.189	81.604	102.112	222.290	80.57	34.95	41.87	32.830	-39.396	-22.638	-0.78931	-0.44565	-0.42215	0.00867	16.4	13111	100
2025-5-24 9:5:41.641	WT901BLE68(801231B9234C)	-0.389	1.079	0.251	89.233	86.548	255.188	83.88	30.10	44.98	32.830	-39.396	-22.638	-0.78931	-0.44565	-0.42215	0.00867	16.4	13111	100
2025-5-24 9:5:41.642	WT901BLE68(801231B9234C)	-0.382	1.384	0.287	82.947	41.992	281.006	86.38	24.58	46.93	42.924	-20.482	-25.480	-0.78931	-0.44565	-0.42215	0.00867	16.4	13111	100
2025-5-24 9:5:41.700	WT901BLE68(801231B9234C)	-0.234	1.598	0.257	61.951	-9.827	296.875	87.86	18.65	47.52	42.924	-20.482	-25.480	-0.78931	-0.44565	-0.42215	0.00867	16.4	13111	100
2025-5-24 9:5:41.700	WT901BLE68(801231B9234C)	-0.055	1.629	0.156	47.119	-29.236	294.006	88.67	12.67	47.26	42.924	-20.482	-25.480	-0.78931	-0.44565	-0.42215	0.00867	16.4	13111	100
2025-5-24 9:5:41.730	WT901BLE68(801231B9234C)	0.053	1.632	-0.048	49.255	20.752	278.015	89.52	7.00	47.41	42.924	-20.482	-25.480	-0.78931	-0.44565	-0.42215	0.00867	16.4	13111	100
2025-5-24 9:5:41.731	WT901BLE68(801231B9234C)	0.013	1.613	-0.148	44.067	106.750	251.648	90.46	1.78	48.95	42.924	-20.482	-25.480	-0.78931	-0.44565	-0.42215	0.00867	16.4	13111	100
2025-5-24 9:5:41.760	WT901BLE68(801231B9234C)	-0.186	1.485	-0.056	28.442	198.547	206.360	91.02	-2.68	52.26	42.924	-20.482	-25.480	-0.78931	-0.44565	-0.42215	0.00867	16.4	13111	100
2025-5-24 9:5:41.760	WT901BLE68(801231B9234C)	-0.412	1.327	0.052	9.827	248.779	158.325	90.88	-6.19	56.90	42.924	-20.482	-25.480	-0.78931	-0.44565	-0.42215	0.00867	16.4	13111	100
2025-5-24 9:5:42.60	WT901BLE68(801231B9234C)	-0.478	1.159	0.044	-4.333	239.075	121.216	90.15	-8.78	61.79	42.924	-20.482	-25.480	-0.78931	-0.44565	-0.42215	0.00867	16.4	13111	100
2025-5-24 9:5:42.61	WT901BLE68(801231B9234C)	-0.473	1.020	0.008	-10.437	195.618	99.670	89.19	-10.70	65.98	42.924	-20.482	-25.480	-0.78931	-0.44565	-0.42215	0.00867	16.4	13111	100
2025-5-24 9:5:42.62	WT901BLE68(801231B9234C)	-0.477	0.948	-0.048	-11.658	150.208	86.426	88.28	-12.19	69.20	42.924	-20.482	-25.480	-0.78931	-0.44565	-0.42215	0.00867	16.4	13111	100
2025-5-24 9:5:42.62	WT901BLE68(801231B9234C)	-0.487	0.927	-0.076	-12.207	108.521	78.735	87.52	-13.43	71.48	42.924	-20.482	-25.480	-0.52377	-0.60840	-0.33115	-0.49573	16.4	13111	100
2025-5-24 9:5:42.63	WT901BLE68(801231B9234C)	-0.458	0.929	-0.073	-11.597	69.031	79.163	86.96	-14.58	72.86	42.924	-20.482	-25.480	-0.52377	-0.60840	-0.33115	-0.49573	16.4	13111	100
2025-5-24 9:5:42.63	WT901BLE68(801231B9234C)	-0.414	0.941	-0.058	-10.498	37.842	86.853	86.63	-15.84	73.44	42.924	-20.482	-25.480	-0.52377	-0.60840	-0.33115	-0.49573	16.4	13111	100
2025-5-24 9:5:42.213	WT901BLE68(801231B9234C)	-0.378	0.906	-0.008	-12.268	25.940	96.313	86.42	-17.29	73.55	42.924	-20.482	-25.480	-0.52377	-0.60840	-0.33115	-0.49573	16.4	13111	100
2025-5-24 9:5:42.213	WT901BLE68(801231B9234C)	-0.361	0.842	0.018	-11.414	26.184	103.394	86.24	-18.89	73.51	42.924	-20.482	-25.480	-0.52377	-0.60840	-0.33115	-0.49573	16.4	13111	100
2025-5-24 9:5:42.214	WT901BLE68(801231B9234C)	-0.377	0.804	0.048	-7.629	34.119	107.666	86.09	-20.59	73.50	42.924	-20.482	-25.480	-0.52377	-0.60840	-0.33115	-0.49573	16.4	13111	100
2025-5-24 9:5:42.214	WT901BLE68(801231B9234C)	-0.448	0.801	0.092	-4.272	39.978	110.046	85.99	-22.35	73.55	42.924	-20.482	-25.480	-0.52377	-0.60840	-0.33115	-0.49573	16.4	13111	100
2025-5-24 9:5:42.242	WT901BLE68(801231B9234C)	-0.532	0.851	0.138	0.488	39.734	109.802	85.97	-24.13	73.52	42.924	-20.482	-25.480	-0.52377	-0.60840	-0.33115	-0.49573	16.4	13111	100
2025-5-24 9:5:42.242	WT901BLE68(801231B9234C)	-0.593	0.933	0.167	2.747	27.527	107.971	86.16	-25.93	73.17	42.924	-20.482	-25.480	-0.52377	-0.60840	-0.33115	-0.49573	16.4	13111	100
2025-5-24 9:5:42.243	WT901BLE68(801231B9234C)	-0.653	0.963	0.188	3.784	8.972	97.595	86.60	-27.67	72.28	42.924	-20.482	-25.480	-0.52377	-0.60840	-0.33115	-0.49573	16.4	13111	100
2025-5-24 9:5:42.243	WT901BLE68(801231B9234C)	-0.688	0.991	0.183	9.155	-6.714	67.871	87.38	-29.01	70.87	42.924	-20.482	-25.480	-0.52377	-0.60840	-0.33115	-0.49573	16.4	13111	100
2025-5-24 9:5:42.245	WT901BLE68(801231B9234C)	-0.623	1.010	0.162	14.160	-18.311	20.630	88.47	-29.53	69.09	42.924	-20.482	-25.480	-0.52377	-0.60840	-0.33115	-0.49573	16.4	13111	100
2025-5-24 9:5:42.246	WT901BLE68(801231B9234C)	-0.428	1.130	0.168	22.217	-41.809	-34.424	89.92	-28.98	66.87	9.898	-53.606	-10.780	-0.52377	-0.60840	-0.33115	-0.49573	16.4	13111	100
2025-5-24 9:5:42.246	WT901BLE68(801231B9234C)	-0.308	1.303	0.128	23.682	-77.148	-72.571	91.75	-27.45	63.99	9.898	-53.606	-10.780	-0.52377	-0.60840	-0.33115	-0.49573	16.4	13111	100
2025-5-24 9:5:42.246	WT901BLE68(801231B9234C)	-0.285	1.398	0.152	13.794	-102.112	-105.591	93.58	-25.15	60.59	9.898	-53.606	-10.780	-0.52377	-0.60840	-0.33115	-0.49573	16.4	13111	100
2025-5-24 9:5:42.247	WT901BLE68(801231B9234C)	-0.254	1.417	0.119	6.653	-101.074	-135.925	95.07	-22.10	57.24	9.898	-53.606	-10.780	-0.52377	-0.60840	-0.33115	-0.49573	16.4	13111	100
2025-5-24 9:5:42.247	WT901BLE68(801231B9234C)	-0.229	1.368	0.093	-1.526	-81.482	-158.142	96.01	-18.56	54.45	9.898	-53.606	-10.780	-0.52377	-0.60840	-0.33115	-0.49573	16.4	13111	100
2025-5-24 9:5:42.248	WT901BLE68(801231B9234C)	-0.246	1.327	0.093	-6.836	-52.002	-177.063	96.41	-14.64	52.48	9.898	-53.606	-10.780	-0.52377	-0.60840	-0.33115	-0.49573	16.4	13111	100
2025-5-24 9:5:42.248	WT901BLE68(801231B9234C)	-0.295	1.311	0.096	-7.446	-25.208	-190.125	96.41	-10.51	51.42	9.898	-53.606	-10.780	-0.52377	-0.60840	-0.33115	-0.49573	16.4	13111	100
2025-5-24 9:5:42.249	WT901BLE68(801231B9234C)	-0.374	1.322	0.100	-5.188	-16.602	-198.730	96.25	-6.26	51.05	9.898	-53.606	-10.780	-0.52377	-0.60840	-0.33115	-0.49573	16.4	13111	100
2025-5-24 9:5:42.249	WT901BLE68(801231B9234C)	-0.417	1.295	0.114	-2.625	-38.879	-198.914	96.08	-1.98	50.73	9.898	-53.606	-10.780	-0.59369	-0.68085	-0.30646	-0.29987	16.4	13111	100
2025-5-24 9:5:42.301	WT901BLE68(801231B9234C)	-0.420	1.301	0.109	0.916	-79.773	-192.810	95.95	2.24	49.84	9.898	-53.606	-10.780	-0.59369	-0.68085	-0.30646	-0.29987	16.4	13111	100
2025-5-24 9:5:42.301	WT901BLE68(801231B9234C)	-0.394	1.368	0.079	1.038	-125.000	-182.617	95.72	6.32	48.15	9.898	-53.606	-10.780	-0.59369	-0.68085	-0.30646	-0.29987	16.4	13111	100
2025-5-24 9:5:42.330	WT901BLE68(801231B9234C)	-0.315	1.396	0.030	-5.249	-168.762	-169.861	95.17	10.20	45.55	9.898	-53.606	-10.780	-0.59369	-0.68085	-0.30646	-0.29987	16.4	13111	100
2025-5-24 9:5:42.331	WT901BLE68(801231B9234C)	-0.227	1.351	-0.025	-13.611	-197.205	-159.729	94.15	13.83	42.19	9.898	-53.606	-10.780	-0.59369	-0.68085	-0.30646	-0.29987	16.4	13111	100
2025-5-24 9:5:42.361	WT901BLE68(801231B9234C)	-0.167	1.289	-0.072	-22.583	-207.031	-153.809	92.65	17.20	38.38	9.898	-53.606	-10.780	-0.59369	-0.68085	-0.30646	-0.29987	16.4	13111	100
2025-5-24 9:5:42.361	WT901BLE68(801231B9234C)	-0.124	1.228	-0.080	-30.945	-203.186	-152.283	90.75	20.36	34.41	9.898	-53.606	-10.780	-0.59369	-0.68085	-0.30646	-0.29987	16.4	13111	100
2025-5-24 9:5:42.423	WT901BLE68(801231B9234C)	-0.080	1.180	-0.064	-39.246	-191.467	-152.954	88.51	23.32	30.48	9.898	-53.606	-10.780	-0.59369	-0.68085	-0.30646	-0.29987	16.4	13111	100
2025-5-24 9:5:42.423	WT901BLE68(801231B9234C)	-0.038	1.137	-0.060	-48.218	-169.678	-152.710	86.02	26.10	26.75	9.898	-53.606	-10.780	-0.59369	-0.68085	-0.30646	-0.29987	16.4	13111	100
2025-5-24 9:5:42.453	WT901BLE68(801231B9234C)	-0.024	1.066	-0.044	-57.739	-136.108	-151.306	83.42	28.70	23.48	9.898	-53.606	-10.780	-0.59369	-0.68085	-0.30646	-0.29987	16.4	13111	100
2025-5-24 9:5:42.454	WT901BLE68(801231B9234C)	-0.045	0.991	-0.033	-63.538	-94.971	-148.010	80.92	31.17	20.92	35.280	-35.182	-24.990	-0.59369	-0.68085	-0.30646	-0.29987	16.4	13111	100
2025-5-24 9:5:42.483	WT901BLE68(801231B9234C)	-0.078	0.934	-0.028	-65.857	-55.969	-142.334	78.68	33.54	19.14	35.280	-35.182	-24.990	-0.59369	-0.68085	-0.30646	-0.29987	16.4	13111	100
2025-5-24 9:5:42.483	WT901BLE68(801231B9234C)	-0.105	0.871	-0.021	-67.627	-26.062	-135.132	76.75	35.83	18.05	35.280	-35.182	-24.990	-0.59369	-0.68085	-0.30646	-0.29987	16.4	13111	100
2025-5-24 9:5:42.541	WT901BLE68(801231B9234C)	-0.119	0.813	-0.014	-66.711	-5.920	-127.380	75.09	38.01	17.45	35.280	-35.182	-24.990	-0.59369	-0.68085	-0.30646	-0.29987	16.4	13111	100
2025-5-24 9:5:42.541	WT901BLE68(801231B9234C)	-0.139	0.795	-0.021	-64.514	7.813	-119.263	73.67	40.07	17.20	35.280	-35.182	-24.990	-0.59369	-0.68085	-0.30646	-0.29987	16.4	13111	100
2025-5-24 9:5:42.571	WT901BLE68(801231B9234C)	-0.147	0.799	-0.028	-60.730	17.029	-109.131	72.49	42.00	17.22	35.280	-35.182	-24.990	-0.59369	-0.68085	-0.30646	-0.29987	16.4	13111	100
2025-5-24 9:5:42.571	WT901BLE68(801231B9234C)	-0.137	0.845	-0.042	-55.969	22.949	-96.863	71.55	43.73	17.46	35.280	-35.182	-24.990	-0.59369	-0.68085	-0.30646	-0.29987	16.4	13111	100
2025-5-24 9:5:42.600	WT901BLE68(801231B9234C)	-0.121	0.891	-0.051	-52.429	29.907	-81.482	70.89	45.21	17.95	35.280	-35.182	-24.990	-0.59369	-0.68085	-0.30646	-0.29987	16.4	13111	100
2025-5-24 9:5:42.600	WT901BLE68(801231B9234C)	-0.121	0.907	-0.048	-46.448	42.053	-62.866	70.64	46.41	18.87	35.280	-35.182	-24.990	-0.59369	-0.68085	-0.30646	-0.29987	16.4	13111	100
2025-5-24 9:5:42.661	WT901BLE68(801231B9234C)	-0.147	0.910	-0.036	-37.598	57.373	-41.565	70.97	47.31	20.38	35.280	-35.182	-24.990	-0.59369	-0.68085	-0.30646	-0.29987	16.4	13111	100
2025-5-24 9:5:42.661	WT901BLE68(801231B9234C)	-0.188	0.961	-0.039	-23.193	72.998	-11.536	72.08	47.79	22.59	35.280	-35.182	-24.990	-0.59369	-0.68085	-0.30646	-0.29987	16.4	13111	100
2025-5-24 9:5:42.693	WT901BLE68(801231B9234C)	-0.233	1.018	-0.035	-9.094	85.205	25.574	73.97	47.64	25.48	35.280	-35.182	-24.990	-0.76501	-0.47113	-0.43250	0.07486	16.4	13111	100
2025-5-24 9:5:42.693	WT901BLE68(801231B9234C)	-0.268	1.023	-0.029	6.104	90.576	70.862	76.47	46.65	28.84	35.280	-35.182	-24.990	-0.76501	-0.47113	-0.43250	0.07486	16.4	13111	100
2025-5-24 9:5:42.724	WT901BLE68(801231B9234C)	-0.301	0.937	0.014	24.048	92.773	118.469	79.34	44.66	32.38	35.280	-35.182	-24.990	-0.76501	-0.47113	-0.43250	0.07486	16.4	13111	100
2025-5-24 9:5:42.724	WT901BLE68(801231B9234C)	-0.322	0.854	0.078	45.044	89.172	159.485	82.37	41.73	35.74	35.280	-35.182	-24.990	-0.76501	-0.47113	-0.43250	0.07486	16.4	13111	100
2025-5-24 9:5:42.781	WT901BLE68(801231B9234C)	-0.351	0.834	0.164	64.575	74.585	196.716	85.28	37.96	38.57	35.280	-35.182	-24.990	-0.76501	-0.47113	-0.43250	0.07486	16.4	13111	100
2025-5-24 9:5:42.781	WT901BLE68(801231B9234C)	-0.385	0.939	0.221	82.214	44.800	225.647	87.82	33.47	40.47	35.280	-35.182	-24.990	-0.76501	-0.47113	-0.43250	0.07486	16.4	13111	100
2025-5-24 9:5:42.810	WT901BLE68(801231B9234C)	-0.374	1.155	0.248	88.440	1.282	247.864	89.80	28.50	41.17	35.280	-35.182	-24.990	-0.76501	-0.47113	-0.43250	0.07486	16.4	13111	100
2025-5-24 9:5:42.810	WT901BLE68(801231B9234C)	-0.330	1.307	0.239	85.205	-46.753	262.207	91.15	23.24	40.64	35.280	-35.182	-24.990	-0.76501	-0.47113	-0.43250	0.07486	16.4	13111	100
2025-5-24 9:5:42.871	WT901BLE68(801231B9234C)	-0.246	1.391	0.164	82.886	-85.327	265.625	92.12	17.94	39.13	35.280	-35.182	-24.990	-0.76501	-0.47113	-0.43250	0.07486	16.4	13111	100
2025-5-24 9:5:42.872	WT901BLE68(801231B9234C)	-0.140	1.412	0.057	84.778	-102.661	261.902	93.09	12.76	37.05	35.280	-35.182	-24.990	-0.76501	-0.47113	-0.43250	0.07486	16.4	13111	100
2025-5-24 9:5:42.901	WT901BLE68(801231B9234C)	-0.041	1.352	0.022	87.341	-90.820	250.732	94.30	7.83	34.95	36.750	-33.810	-22.540	-0.76501	-0.47113	-0.43250	0.07486	16.4	13111	100
2025-5-24 9:5:42.901	WT901BLE68(801231B9234C)	0.011	1.261	0.070	87.280	-51.819	229.980	95.75	3.28	33.37	36.750	-33.810	-22.540	-0.76501	-0.47113	-0.43250	0.07486	16.4	13111	100
2025-5-24 9:5:42.930	WT901BLE68(801231B9234C)	-0.048	1.184	0.133	85.083	5.493	202.881	97.29	-0.81	32.76	36.750	-33.810	-22.540	-0.76501	-0.47113	-0.43250	0.07486	16.4	13111	100
2025-5-24 9:5:42.931	WT901BLE68(801231B9234C)	-0.159	1.145	0.155	78.064	60.913	173.950	98.71	-4.48	33.26	36.750	-33.810	-22.540	-0.76501	-0.47113	-0.43250	0.07486	16.4	13111	100
2025-5-24 9:5:42.991	WT901BLE68(801231B9234C)	-0.229	1.110	0.150	69.031	96.741	146.240	99.82	-7.71	34.62	36.750	-33.810	-22.540	-0.76501	-0.47113	-0.43250	0.07486	16.4	13111	100
2025-5-24 9:5:42.992	WT901BLE68(801231B9234C)	-0.291	1.119	0.127	62.500	116.028	122.742	100.60	-10.51	36.49	36.750	-33.810	-22.540	-0.76501	-0.47113	-0.43250	0.07486	16.4	13111	100
2025-5-24 9:5:43.81	WT901BLE68(801231B9234C)	-0.379	1.156	0.100	55.298	123.108	102.844	101.11	-12.91	38.59	36.750	-33.810	-22.540	-0.76501	-0.47113	-0.43250	0.07486	16.4	13111	100
2025-5-24 9:5:43.81	WT901BLE68(801231B9234C)	-0.420	1.162	0.085	48.035	114.929	88.074	101.40	-14.93	40.64	36.750	-33.810	-22.540	-0.76501	-0.47113	-0.43250	0.07486	16.4	13111	100
2025-5-24 9:5:43.81	WT901BLE68(801231B9234C)	-0.400	1.153	0.107	41.565	93.384	78.918	101.61	-16.62	42.29	36.750	-33.810	-22.540	-0.76501	-0.47113	-0.43250	0.07486	16.4	13111	100
2025-5-24 9:5:43.81	WT901BLE68(801231B9234C)	-0.345	1.125	0.127	35.400	71.106	73.059	101.82	-18.02	43.38	36.750	-33.810	-22.540	-0.52637	-0.75201	-0.18985	-0.34821	16.4	13111	100
2025-5-24 9:5:43.141	WT901BLE68(801231B9234C)	-0.293	1.064	0.170	28.442	63.965	66.895	101.99	-19.22	44.08	36.750	-33.810	-22.540	-0.52637	-0.75201	-0.18985	-0.34821	16.4	13111	100
2025-5-24 9:5:43.141	WT901BLE68(801231B9234C)	-0.321	0.984	0.207	22.278	73.364	61.707	102.02	-20.29	44.77	36.750	-33.810	-22.540	-0.52637	-0.75201	-0.18985	-0.34821	16.4	13111	100
2025-5-24 9:5:43.142	WT901BLE68(801231B9234C)	-0.381	0.899	0.271	16.174	84.656	55.542	101.85	-21.29	45.57	36.750	-33.810	-22.540	-0.52637	-0.75201	-0.18985	-0.34821	16.4	13111	100
2025-5-24 9:5:43.142	WT901BLE68(801231B9234C)	-0.448	0.898	0.289	13.794	83.984	51.880	101.69	-22.19	46.18	36.750	-33.810	-22.540	-0.52637	-0.75201	-0.18985	-0.34821	16.4	13111	100
2025-5-24 9:5:43.351	WT901BLE68(801231B9234C)	-0.485	0.919	0.289	9.827	70.129	48.279	101.68	-23.03	46.32	36.750	-33.810	-22.540	-0.52637	-0.75201	-0.18985	-0.34821	16.4	13111	100
2025-5-24 9:5:43.351	WT901BLE68(801231B9234C)	-0.510	0.975	0.289	7.935	50.720	40.039	101.83	-23.69	46.02	36.750	-33.810	-22.540	-0.52637	-0.75201	-0.18985	-0.34821	16.4	13111	100
2025-5-24 9:5:43.352	WT901BLE68(801231B9234C)	-0.540	1.079	0.284	3.296	29.358	23.438	102.10	-24.02	45.29	36.750	-33.810	-22.540	-0.52637	-0.75201	-0.18985	-0.34821	16.4	13111	100
2025-5-24 9:5:43.353	WT901BLE68(801231B9234C)	-0.516	1.244	0.255	-2.747	6.836	-3.174	102.43	-23.79	44.20	36.750	-33.810	-22.540	-0.52637	-0.75201	-0.18985	-0.34821	16.4	13111	100
2025-5-24 9:5:43.355	WT901BLE68(801231B9234C)	-0.427	1.310	0.231	-12.939	-12.817	-35.461	102.68	-22.87	42.84	36.750	-33.810	-22.540	-0.52637	-0.75201	-0.18985	-0.34821	16.4	13111	100
2025-5-24 9:5:43.355	WT901BLE68(801231B9234C)	-0.276	1.340	0.199	-19.226	-30.701	-70.313	102.83	-21.19	41.28	36.750	-33.810	-22.540	-0.52637	-0.75201	-0.18985	-0.34821	16.4	13111	100
2025-5-24 9:5:43.356	WT901BLE68(801231B9234C)	-0.218	1.293	0.139	-27.039	-36.377	-101.807	102.78	-18.82	39.70	36.750	-33.810	-22.540	-0.52637	-0.75201	-0.18985	-0.34821	16.4	13111	100
2025-5-24 9:5:43.356	WT901BLE68(801231B9234C)	-0.283	1.247	0.114	-32.166	-31.372	-134.766	102.45	-15.84	38.40	36.750	-33.810	-22.540	-0.52637	-0.75201	-0.18985	-0.34821	16.4	13111	100
2025-5-24 9:5:43.356	WT901BLE68(801231B9234C)	-0.271	1.247	0.093	-33.264	-34.302	-159.668	101.92	-12.33	37.36	36.750	-33.810	-22.540	-0.52637	-0.75201	-0.18985	-0.34821	16.4	13111	100
2025-5-24 9:5:43.356	WT901BLE68(801231B9234C)	-0.273	1.269	0.069	-31.250	-41.077	-174.194	101.31	-8.46	36.47	36.750	-33.810	-22.540	-0.52637	-0.75201	-0.18985	-0.34821	16.4	13111	100
2025-5-24 9:5:43.383	WT901BLE68(801231B9234C)	-0.331	1.299	0.058	-32.349	-49.683	-184.753	100.59	-4.41	35.82	36.750	-33.810	-22.540	-0.52637	-0.75201	-0.18985	-0.34821	16.4	13111	100
2025-5-24 9:5:43.384	WT901BLE68(801231B9234C)	-0.353	1.357	0.056	-32.410	-64.575	-188.538	99.80	-0.27	35.18	18.816	-51.646	-12.740	-0.52637	-0.75201	-0.18985	-0.34821	16.4	13111	100
2025-5-24 9:5:43.413	WT901BLE68(801231B9234C)	-0.326	1.410	0.049	-33.997	-85.510	-183.716	98.94	3.82	34.27	18.816	-51.646	-12.740	-0.52637	-0.75201	-0.18985	-0.34821	16.4	13111	100
2025-5-24 9:5:43.413	WT901BLE68(801231B9234C)	-0.278	1.393	0.023	-37.781	-104.370	-175.781	97.92	7.75	32.96	18.816	-51.646	-12.740	-0.52637	-0.75201	-0.18985	-0.34821	16.4	13111	100
2025-5-24 9:5:43.471	WT901BLE68(801231B9234C)	-0.225	1.314	0.005	-42.053	-115.051	-168.884	96.69	11.49	31.34	18.816	-51.646	-12.740	-0.52637	-0.75201	-0.18985	-0.34821	16.4	13111	100
2025-5-24 9:5:43.472	WT901BLE68(801231B9234C)	-0.181	1.210	-0.009	-44.678	-117.371	-164.307	95.26	15.04	29.54	18.816	-51.646	-12.740	-0.52637	-0.75201	-0.18985	-0.34821	16.4	13111	100
2025-5-24 9:5:43.500	WT901BLE68(801231B9234C)	-0.157	1.139	-0.019	-46.082	-114.563	-162.659	93.67	18.44	27.67	18.816	-51.646	-12.740	-0.52637	-0.75201	-0.18985	-0.34821	16.4	13111	100
2025-5-24 9:5:43.501	WT901BLE68(801231B9234C)	-0.137	1.105	-0.021	-48.767	-108.398	-162.231	91.97	21.71	25.79	18.816	-51.646	-12.740	-0.70074	-0.65292	-0.28729	-0.00272	16.4	13111	100
2025-5-24 9:5:43.533	WT901BLE68(801231B9234C)	-0.118	1.068	-0.009	-54.443	-99.121	-161.438	90.09	24.86	23.97	18.816	-51.646	-12.740	-0.70074	-0.65292	-0.28729	-0.00272	16.4	13111	100
2025-5-24 9:5:43.533	WT901BLE68(801231B9234C)	-0.095	1.023	-0.024	-59.082	-85.754	-159.058	88.09	27.87	22.26	18.816	-51.646	-12.740	-0.70074	-0.65292	-0.28729	-0.00272	16.4	13111	100
2025-5-24 9:5:43.592	WT901BLE68(801231B9234C)	-0.099	0.995	-0.032	-61.035	-66.895	-154.907	86.09	30.72	20.79	18.816	-51.646	-12.740	-0.70074	-0.65292	-0.28729	-0.00272	16.4	13111	100
2025-5-24 9:5:43.592	WT901BLE68(801231B9234C)	-0.105	0.966	-0.017	-62.439	-45.593	-148.865	84.19	33.41	19.68	18.816	-51.646	-12.740	-0.70074	-0.65292	-0.28729	-0.00272	16.4	13111	100
2025-5-24 9:5:43.622	WT901BLE68(801231B9234C)	-0.113	0.925	-0.006	-62.317	-27.771	-142.273	82.46	35.94	18.91	18.816	-51.646	-12.740	-0.70074	-0.65292	-0.28729	-0.00272	16.4	13111	100
2025-5-24 9:5:43.623	WT901BLE68(801231B9234C)	-0.123	0.885	-0.004	-61.340	-13.245	-135.681	80.89	38.33	18.45	18.816	-51.646	-12.740	-0.70074	-0.65292	-0.28729	-0.00272	16.4	13111	100
2025-5-24 9:5:43.653	WT901BLE68(801231B9234C)	-0.133	0.857	-0.006	-58.716	-1.770	-129.272	79.51	40.59	18.23	18.816	-51.646	-12.740	-0.70074	-0.65292	-0.28729	-0.00272	16.4	13111	100
2025-5-24 9:5:43.653	WT901BLE68(801231B9234C)	-0.129	0.851	-0.011	-55.298	6.836	-121.826	78.34	42.71	18.23	38.416	-27.342	-28.028	-0.70074	-0.65292	-0.28729	-0.00272	16.4	13111	100
2025-5-24 9:5:43.711	WT901BLE68(801231B9234C)	-0.126	0.880	-0.019	-50.171	14.404	-112.793	77.40	44.68	18.43	38.416	-27.342	-28.028	-0.70074	-0.65292	-0.28729	-0.00272	16.4	13111	100
2025-5-24 9:5:43.711	WT901BLE68(801231B9234C)	-0.125	0.913	-0.037	-45.349	22.217	-101.196	76.74	46.45	18.87	38.416	-27.342	-28.028	-0.70074	-0.65292	-0.28729	-0.00272	16.4	13111	100
2025-5-24 9:5:43.740	WT901BLE68(801231B9234C)	-0.141	0.881	-0.033	-41.077	30.090	-86.426	76.40	47.98	19.62	38.416	-27.342	-28.028	-0.70074	-0.65292	-0.28729	-0.00272	16.4	13111	100
2025-5-24 9:5:43.740	WT901BLE68(801231B9234C)	-0.180	0.889	-0.021	-28.259	36.560	-66.589	76.49	49.18	20.69	38.416	-27.342	-28.028	-0.70074	-0.65292	-0.28729	-0.00272	16.4	13111	100
2025-5-24 9:5:43.771	WT901BLE68(801231B9234C)	-0.199	1.022	-0.029	-13.611	41.504	-35.461	77.18	49.88	22.14	38.416	-27.342	-28.028	-0.70074	-0.65292	-0.28729	-0.00272	16.4	13111	100
2025-5-24 9:5:43.771	WT901BLE68(801231B9234C)	-0.206	1.082	-0.033	-3.418	44.983	8.301	78.38	49.81	23.96	38.416	-27.342	-28.028	-0.70074	-0.65292	-0.28729	-0.00272	16.4	13111	100
2025-5-24 9:5:43.833	WT901BLE68(801231B9234C)	-0.234	0.996	-0.015	9.521	50.415	57.739	80.06	48.80	26.14	38.416	-27.342	-28.028	-0.70074	-0.65292	-0.28729	-0.00272	16.4	13111	100
2025-5-24 9:5:43.833	WT901BLE68(801231B9234C)	-0.275	0.882	0.039	29.053	58.838	104.614	82.25	46.82	28.62	38.416	-27.342	-28.028	-0.70074	-0.65292	-0.28729	-0.00272	16.4	13111	100
2025-5-24 9:5:43.864	WT901BLE68(801231B9234C)	-0.290	0.842	0.127	50.110	62.927	146.057	84.82	43.97	31.17	38.416	-27.342	-28.028	-0.70074	-0.65292	-0.28729	-0.00272	16.4	13111	100
2025-5-24 9:5:43.864	WT901BLE68(801231B9234C)	-0.306	0.862	0.204	65.735	55.054	181.213	87.37	40.34	33.37	38.416	-27.342	-28.028	-0.71133	-0.56656	-0.41544	0.01825	16.4	13111	100
2025-5-24 9:5:43.893	WT901BLE68(801231B9234C)	-0.317	0.991	0.240	80.627	31.982	209.534	89.61	36.08	34.83	38.416	-27.342	-28.028	-0.71133	-0.56656	-0.41544	0.01825	16.4	13111	100
2025-5-24 9:5:43.893	WT901BLE68(801231B9234C)	-0.299	1.190	0.255	84.351	0.732	232.361	91.38	31.36	35.33	38.416	-27.342	-28.028	-0.71133	-0.56656	-0.41544	0.01825	16.4	13111	100
2025-5-24 9:5:43.951	WT901BLE68(801231B9234C)	-0.276	1.328	0.251	83.130	-33.630	247.742	92.63	26.35	34.91	38.416	-27.342	-28.028	-0.71133	-0.56656	-0.41544	0.01825	16.4	13111	100
2025-5-24 9:5:43.951	WT901BLE68(801231B9234C)	-0.240	1.427	0.194	80.505	-65.308	254.883	93.56	21.23	33.70	38.416	-27.342	-28.028	-0.71133	-0.56656	-0.41544	0.01825	16.4	13111	100
2025-5-24 9:5:43.980	WT901BLE68(801231B9234C)	-0.143	1.364	0.147	75.073	-83.252	252.930	94.33	16.19	31.96	38.416	-27.342	-28.028	-0.71133	-0.56656	-0.41544	0.01825	16.4	13111	100
2025-5-24 9:5:43.980	WT901BLE68(801231B9234C)	-0.031	1.199	0.159	73.792	-75.134	241.455	95.17	11.39	30.18	38.416	-27.342	-28.028	-0.71133	-0.56656	-0.41544	0.01825	16.4	13111	100
2025-5-24 9:5:44.11	WT901BLE68(801231B9234C)	0.011	1.080	0.190	71.167	-40.894	220.947	96.21	6.94	28.90	38.416	-27.342	-28.028	-0.71133	-0.56656	-0.41544	0.01825	16.4	13111	100
2025-5-24 9:5:44.11	WT901BLE68(801231B9234C)	-0.040	1.008	0.206	65.430	9.155	193.665	97.31	2.93	28.52	38.416	-27.342	-28.028	-0.71133	-0.56656	-0.41544	0.01825	16.4	13111	100
2025-5-24 9:5:44.71	WT901BLE68(801231B9234C)	-0.108	0.988	0.185	58.533	57.129	165.283	98.31	-0.62	29.16	38.416	-27.342	-28.028	-0.71133	-0.56656	-0.41544	0.01825	16.4	13111	100
2025-5-24 9:5:44.72	WT901BLE68(801231B9234C)	-0.169	0.995	0.143	50.903	90.027	140.259	99.09	-3.75	30.55	38.416	-27.342	-28.028	-0.71133	-0.56656	-0.41544	0.01825	16.4	13111	100
2025-5-24 9:5:44.100	WT901BLE68(801231B9234C)	-0.242	1.027	0.106	44.800	114.136	117.737	99.61	-6.49	32.49	24.206	-45.570	-20.482	-0.71133	-0.56656	-0.41544	0.01825	16.4	13111	100
2025-5-24 9:5:44.100	WT901BLE68(801231B9234C)	-0.306	1.083	0.087	39.673	127.930	98.267	99.89	-8.85	34.81	24.206	-45.570	-20.482	-0.71133	-0.56656	-0.41544	0.01825	16.4	13111	100
2025-5-24 9:5:44.432	WT901BLE68(801231B9234C)	-0.329	1.146	0.086	34.302	129.150	84.106	99.96	-10.86	37.23	24.206	-45.570	-20.482	-0.71133	-0.56656	-0.41544	0.01825	16.4	13111	100
2025-5-24 9:5:44.432	WT901BLE68(801231B9234C)	-0.355	1.194	0.098	29.053	122.314	76.416	99.89	-12.61	39.55	24.206	-45.570	-20.482	-0.71133	-0.56656	-0.41544	0.01825	16.4	13111	100
2025-5-24 9:5:44.433	WT901BLE68(801231B9234C)	-0.404	1.196	0.140	22.400	111.816	73.914	99.69	-14.19	41.63	24.206	-45.570	-20.482	-0.71133	-0.56656	-0.41544	0.01825	16.4	13111	100
2025-5-24 9:5:44.433	WT901BLE68(801231B9234C)	-0.418	1.113	0.204	14.648	97.168	76.050	99.38	-15.69	43.39	24.206	-45.570	-20.482	-0.71133	-0.56656	-0.41544	0.01825	16.4	13111	100
2025-5-24 9:5:44.435	WT901BLE68(801231B9234C)	-0.413	0.968	0.232	11.047	81.360	77.576	99.02	-17.11	44.74	24.206	-45.570	-20.482	-0.71133	-0.56656	-0.41544	0.01825	16.4	13111	100
2025-5-24 9:5:44.436	WT901BLE68(801231B9234C)	-0.437	0.884	0.280	11.047	68.298	76.782	98.75	-18.44	45.63	24.206	-45.570	-20.482	-0.71133	-0.56656	-0.41544	0.01825	16.4	13111	100
2025-5-24 9:5:44.436	WT901BLE68(801231B9234C)	-0.476	0.872	0.310	11.169	48.950	74.219	98.70	-19.62	45.85	24.206	-45.570	-20.482	-0.71133	-0.56656	-0.41544	0.01825	16.4	13111	100
2025-5-24 9:5:44.436	WT901BLE68(801231B9234C)	-0.496	0.908	0.323	9.338	26.672	67.627	98.98	-20.67	45.21	24.206	-45.570	-20.482	-0.71133	-0.56656	-0.41544	0.01825	16.4	13111	100
2025-5-24 9:5:44.437	WT901BLE68(801231B9234C)	-0.508	0.992	0.292	5.981	2.686	53.406	99.47	-21.44	43.95	24.206	-45.570	-20.482	-0.71133	-0.56656	-0.41544	0.01825	16.4	13111	100
2025-5-24 9:5:44.437	WT901BLE68(801231B9234C)	-0.467	1.101	0.260	1.587	-15.991	27.649	100.06	-21.72	42.28	24.206	-45.570	-20.482	-0.71133	-0.56656	-0.41544	0.01825	16.4	13111	100
2025-5-24 9:5:44.462	WT901BLE68(801231B9234C)	-0.394	1.221	0.202	-3.357	-24.963	-5.981	100.61	-21.31	40.47	24.206	-45.570	-20.482	-0.71133	-0.56656	-0.41544	0.01825	16.4	13111	100
2025-5-24 9:5:44.462	WT901BLE68(801231B9234C)	-0.300	1.257	0.191	-12.329	-26.428	-44.373	100.92	-20.15	38.78	24.206	-45.570	-20.482	-0.71133	-0.56656	-0.41544	0.01825	16.4	13111	100
2025-5-24 9:5:44.463	WT901BLE68(801231B9234C)	-0.237	1.289	0.161	-17.517	-23.865	-77.576	100.99	-18.31	37.32	24.206	-45.570	-20.482	-0.71133	-0.56656	-0.41544	0.01825	16.4	13111	100
2025-5-24 9:5:44.463	WT901BLE68(801231B9234C)	-0.280	1.246	0.145	-25.146	-10.071	-109.314	100.73	-15.89	36.27	24.206	-45.570	-20.482	-0.71133	-0.56656	-0.41544	0.01825	16.4	13111	100
2025-5-24 9:5:44.464	WT901BLE68(801231B9234C)	-0.284	1.218	0.125	-26.855	-0.610	-136.780	100.21	-12.95	35.68	24.206	-45.570	-20.482	-0.71133	-0.56656	-0.41544	0.01825	16.4	13111	100
2025-5-24 9:5:44.464	WT901BLE68(801231B9234C)	-0.303	1.257	0.095	-23.926	5.737	-155.273	99.61	-9.65	35.49	24.206	-45.570	-20.482	-0.71133	-0.56656	-0.41544	0.01825	16.4	13111	100
2025-5-24 9:5:44.465	WT901BLE68(801231B9234C)	-0.374	1.287	0.062	-23.193	3.357	-169.617	98.97	-6.08	35.61	24.206	-45.570	-20.482	-0.71133	-0.56656	-0.41544	0.01825	16.4	13111	100
2025-5-24 9:5:44.465	WT901BLE68(801231B9234C)	-0.415	1.286	0.068	-22.278	-15.625	-176.880	98.35	-2.33	35.73	16.954	-52.234	-13.328	-0.71133	-0.56656	-0.41544	0.01825	16.4	13111	100
2025-5-24 9:5:44.521	WT901BLE68(801231B9234C)	-0.396	1.300	0.065	-19.470	-51.941	-176.575	97.79	1.49	35.36	16.954	-52.234	-13.328	-0.71133	-0.56656	-0.41544	0.01825	16.4	13111	100
2025-5-24 9:5:44.521	WT901BLE68(801231B9234C)	-0.341	1.347	0.045	-19.653	-90.210	-171.875	97.20	5.31	34.28	16.954	-52.234	-13.328	-0.71133	-0.56656	-0.41544	0.01825	16.4	13111	100
2025-5-24 9:5:44.550	WT901BLE68(801231B9234C)	-0.258	1.366	0.015	-23.926	-118.530	-165.833	96.41	9.02	32.60	16.954	-52.234	-13.328	-0.71133	-0.56656	-0.41544	0.01825	16.4	13111	100
2025-5-24 9:5:44.551	WT901BLE68(801231B9234C)	-0.173	1.305	-0.002	-29.358	-130.859	-160.095	95.35	12.57	30.53	16.954	-52.234	-13.328	-0.71133	-0.56656	-0.41544	0.01825	16.4	13111	100
2025-5-24 9:5:44.581	WT901BLE68(801231B9234C)	-0.126	1.211	-0.019	-34.424	-127.991	-158.752	94.04	15.97	28.36	16.954	-52.234	-13.328	-0.71133	-0.56656	-0.41544	0.01825	16.4	13111	100
2025-5-24 9:5:44.581	WT901BLE68(801231B9234C)	-0.106	1.133	-0.014	-38.452	-114.136	-161.682	92.57	19.27	26.33	16.954	-52.234	-13.328	-0.71133	-0.56656	-0.41544	0.01825	16.4	13111	100
2025-5-24 9:5:44.643	WT901BLE68(801231B9234C)	-0.092	1.057	0.003	-42.419	-95.398	-166.992	91.02	22.54	24.59	16.954	-52.234	-13.328	-0.71133	-0.56656	-0.41544	0.01825	16.4	13111	100
2025-5-24 9:5:44.643	WT901BLE68(801231B9234C)	-0.082	0.988	0.007	-45.044	-76.599	-172.607	89.43	25.81	23.15	16.954	-52.234	-13.328	-0.71133	-0.56656	-0.41544	0.01825	16.4	13111	100
2025-5-24 9:5:44.673	WT901BLE68(801231B9234C)	-0.098	0.930	0.007	-45.166	-55.420	-177.185	87.92	29.11	22.05	16.954	-52.234	-13.328	-0.71133	-0.56656	-0.41544	0.01825	16.4	13111	100
2025-5-24 9:5:44.673	WT901BLE68(801231B9234C)	-0.152	0.905	0.012	-43.640	-37.842	-177.979	86.53	32.39	21.29	16.954	-52.234	-13.328	-0.72318	-0.60269	-0.32947	0.07141	16.4	13111	100
2025-5-24 9:5:44.702	WT901BLE68(801231B9234C)	-0.183	0.901	0.023	-41.687	-31.067	-173.767	85.24	35.58	20.67	16.954	-52.234	-13.328	-0.72318	-0.60269	-0.32947	0.07141	16.4	13111	100
2025-5-24 9:5:44.702	WT901BLE68(801231B9234C)	-0.183	0.893	0.023	-40.527	-34.729	-162.903	83.89	38.56	19.96	16.954	-52.234	-13.328	-0.72318	-0.60269	-0.32947	0.07141	16.4	13111	100
2025-5-24 9:5:44.761	WT901BLE68(801231B9234C)	-0.163	0.867	0.023	-39.978	-40.466	-149.536	82.38	41.22	19.01	16.954	-52.234	-13.328	-0.72318	-0.60269	-0.32947	0.07141	16.4	13111	100
2025-5-24 9:5:44.761	WT901BLE68(801231B9234C)	-0.136	0.846	0.016	-38.940	-41.687	-133.484	80.76	43.53	17.91	16.954	-52.234	-13.328	-0.72318	-0.60269	-0.32947	0.07141	16.4	13111	100
2025-5-24 9:5:44.790	WT901BLE68(801231B9234C)	-0.118	0.833	0.017	-37.109	-35.034	-117.249	79.17	45.48	16.86	16.954	-52.234	-13.328	-0.72318	-0.60269	-0.32947	0.07141	16.4	13111	100
2025-5-24 9:5:44.790	WT901BLE68(801231B9234C)	-0.102	0.882	0.007	-32.715	-21.362	-100.220	77.85	47.11	16.12	16.954	-52.234	-13.328	-0.72318	-0.60269	-0.32947	0.07141	16.4	13111	100
2025-5-24 9:5:44.820	WT901BLE68(801231B9234C)	-0.090	0.930	-0.009	-31.372	-2.563	-79.407	77.00	48.39	15.94	16.954	-52.234	-13.328	-0.72318	-0.60269	-0.32947	0.07141	16.4	13111	100
2025-5-24 9:5:44.820	WT901BLE68(801231B9234C)	-0.119	0.900	-0.008	-28.503	20.325	-56.152	76.73	49.31	16.50	16.954	-52.234	-13.328	-0.72318	-0.60269	-0.32947	0.07141	16.4	13111	100
2025-5-24 9:5:44.881	WT901BLE68(801231B9234C)	-0.171	0.918	-0.006	-17.944	43.213	-27.039	77.28	49.81	17.92	16.954	-52.234	-13.328	-0.72318	-0.60269	-0.32947	0.07141	16.4	13111	100
2025-5-24 9:5:44.881	WT901BLE68(801231B9234C)	-0.204	0.997	-0.015	-6.836	59.204	9.949	78.67	49.69	20.14	16.954	-52.234	-13.328	-0.72318	-0.60269	-0.32947	0.07141	16.4	13111	100
2025-5-24 9:5:44.913	WT901BLE68(801231B9234C)	-0.244	1.029	-0.011	3.662	69.275	53.406	80.63	48.77	22.86	43.120	-15.778	-28.028	-0.72318	-0.60269	-0.32947	0.07141	16.4	13111	100
2025-5-24 9:5:44.914	WT901BLE68(801231B9234C)	-0.286	1.007	0.010	18.677	75.256	100.647	82.99	46.91	25.85	43.120	-15.778	-28.028	-0.72318	-0.60269	-0.32947	0.07141	16.4	13111	100
2025-5-24 9:5:44.943	WT901BLE68(801231B9234C)	-0.299	0.960	0.086	33.752	74.158	142.456	85.50	44.13	28.75	43.120	-15.778	-28.028	-0.72318	-0.60269	-0.32947	0.07141	16.4	13111	100
2025-5-24 9:5:44.943	WT901BLE68(801231B9234C)	-0.302	0.934	0.179	49.011	61.523	176.758	87.84	40.57	31.15	43.120	-15.778	-28.028	-0.72318	-0.60269	-0.32947	0.07141	16.4	13111	100
2025-5-24 9:5:45.1	WT901BLE68(801231B9234C)	-0.319	0.993	0.248	59.570	40.222	199.585	89.80	36.45	32.78	43.120	-15.778	-28.028	-0.72318	-0.60269	-0.32947	0.07141	16.4	13111	100
2025-5-24 9:5:45.1	WT901BLE68(801231B9234C)	-0.300	1.159	0.270	62.683	10.803	214.111	91.27	32.01	33.54	43.120	-15.778	-28.028	-0.72318	-0.60269	-0.32947	0.07141	16.4	13111	100
2025-5-24 9:5:45.30	WT901BLE68(801231B9234C)	-0.226	1.287	0.242	58.838	-22.095	224.426	92.20	27.41	33.43	43.120	-15.778	-28.028	-0.72318	-0.60269	-0.32947	0.07141	16.4	13111	100
2025-5-24 9:5:45.30	WT901BLE68(801231B9234C)	-0.163	1.354	0.166	58.105	-44.373	227.417	92.82	22.76	32.68	43.120	-15.778	-28.028	-0.72318	-0.60269	-0.32947	0.07141	16.4	13111	100
2025-5-24 9:5:45.63	WT901BLE68(801231B9234C)	-0.128	1.393	0.080	59.631	-49.255	226.685	93.43	18.18	31.66	43.120	-15.778	-28.028	-0.72318	-0.60269	-0.32947	0.07141	16.4	13111	100
2025-5-24 9:5:45.63	WT901BLE68(801231B9234C)	-0.087	1.347	0.075	60.608	-33.997	221.924	94.20	13.69	30.79	43.120	-15.778	-28.028	-0.72318	-0.60269	-0.32947	0.07141	16.4	13111	100
2025-5-24 9:5:45.121	WT901BLE68(801231B9234C)	-0.080	1.249	0.139	58.716	-3.967	209.778	95.13	9.40	30.39	43.120	-15.778	-28.028	-0.65515	-0.70621	-0.23325	-0.13245	16.4	13111	100
2025-5-24 9:5:45.121	WT901BLE68(801231B9234C)	-0.153	1.141	0.184	53.955	32.959	190.552	96.09	5.42	30.67	43.120	-15.778	-28.028	-0.65515	-0.70621	-0.23325	-0.13245	16.4	13111	100
2025-5-24 9:5:45.151	WT901BLE68(801231B9234C)	-0.205	1.047	0.173	45.593	62.073	170.166	96.92	1.79	31.57	43.120	-15.778	-28.028	-0.65515	-0.70621	-0.23325	-0.13245	16.4	13111	100
2025-5-24 9:5:45.151	WT901BLE68(801231B9234C)	-0.227	0.977	0.134	40.100	81.116	151.917	97.55	-1.49	32.90	43.120	-15.778	-28.028	-0.65515	-0.70621	-0.23325	-0.13245	16.4	13111	100
2025-5-24 9:5:45.180	WT901BLE68(801231B9234C)	-0.253	0.946	0.106	35.767	92.651	133.606	98.00	-4.42	34.51	43.120	-15.778	-28.028	-0.65515	-0.70621	-0.23325	-0.13245	16.4	13111	100
2025-5-24 9:5:45.180	WT901BLE68(801231B9234C)	-0.295	0.958	0.090	31.555	97.534	117.737	98.28	-6.99	36.26	43.120	-15.778	-28.028	-0.65515	-0.70621	-0.23325	-0.13245	16.4	13111	100
2025-5-24 9:5:45.271	WT901BLE68(801231B9234C)	-0.343	0.997	0.098	26.306	95.581	104.980	98.40	-9.23	38.01	43.120	-15.778	-28.028	-0.65515	-0.70621	-0.23325	-0.13245	16.4	13111	100
2025-5-24 9:5:45.271	WT901BLE68(801231B9234C)	-0.367	1.031	0.104	21.790	88.501	97.656	98.38	-11.23	39.63	43.120	-15.778	-28.028	-0.65515	-0.70621	-0.23325	-0.13245	16.4	13111	100
2025-5-24 9:5:45.272	WT901BLE68(801231B9234C)	-0.370	1.042	0.137	18.066	79.834	94.849	98.28	-13.06	41.02	43.120	-15.778	-28.028	-0.65515	-0.70621	-0.23325	-0.13245	16.4	13111	100
2025-5-24 9:5:45.273	WT901BLE68(801231B9234C)	-0.364	1.039	0.186	13.977	75.256	93.689	98.12	-14.80	42.21	43.120	-15.778	-28.028	-0.65515	-0.70621	-0.23325	-0.13245	16.4	13111	100
2025-5-24 9:5:45.303	WT901BLE68(801231B9234C)	-0.369	0.955	0.230	9.460	75.928	91.370	97.85	-16.46	43.30	43.120	-15.778	-28.028	-0.65515	-0.70621	-0.23325	-0.13245	16.4	13111	100
2025-5-24 9:5:45.303	WT901BLE68(801231B9234C)	-0.418	0.887	0.257	7.080	77.820	85.754	97.50	-17.98	44.31	16.464	-51.254	-14.210	-0.65515	-0.70621	-0.23325	-0.13245	16.4	13111	100
2025-5-24 9:5:45.361	WT901BLE68(801231B9234C)	-0.488	0.920	0.268	5.859	75.806	77.087	97.19	-19.31	45.08	16.464	-51.254	-14.210	-0.65515	-0.70621	-0.23325	-0.13245	16.4	13111	100
2025-5-24 9:5:45.361	WT901BLE68(801231B9234C)	-0.538	0.972	0.252	2.319	63.354	66.040	97.01	-20.42	45.35	16.464	-51.254	-14.210	-0.65515	-0.70621	-0.23325	-0.13245	16.4	13111	100
2025-5-24 9:5:45.541	WT901BLE68(801231B9234C)	-0.536	1.026	0.226	1.648	46.265	46.997	97.00	-21.19	45.13	16.464	-51.254	-14.210	-0.65515	-0.70621	-0.23325	-0.13245	16.4	13111	100
2025-5-24 9:5:45.541	WT901BLE68(801231B9234C)	-0.501	1.040	0.200	1.221	31.006	18.616	97.12	-21.43	44.60	16.464	-51.254	-14.210	-0.65515	-0.70621	-0.23325	-0.13245	16.4	13111	100
2025-5-24 9:5:45.542	WT901BLE68(801231B9234C)	-0.425	1.074	0.180	2.625	13.000	-19.104	97.35	-20.95	43.81	16.464	-51.254	-14.210	-0.65515	-0.70621	-0.23325	-0.13245	16.4	13111	100
2025-5-24 9:5:45.542	WT901BLE68(801231B9234C)	-0.355	1.244	0.140	4.639	-3.296	-51.636	97.73	-19.71	42.76	16.464	-51.254	-14.210	-0.65515	-0.70621	-0.23325	-0.13245	16.4	13111	100
2025-5-24 9:5:45.543	WT901BLE68(801231B9234C)	-0.357	1.324	0.154	-1.221	-10.986	-79.529	98.03	-17.88	41.62	16.464	-51.254	-14.210	-0.65515	-0.70621	-0.23325	-0.13245	16.4	13111	100
2025-5-24 9:5:45.543	WT901BLE68(801231B9234C)	-0.323	1.366	0.146	-4.456	-10.742	-104.309	98.17	-15.51	40.61	16.464	-51.254	-14.210	-0.65515	-0.70621	-0.23325	-0.13245	16.4	13111	100
2025-5-24 9:5:45.544	WT901BLE68(801231B9234C)	-0.298	1.281	0.119	-9.521	-8.118	-121.643	98.12	-12.79	39.79	16.464	-51.254	-14.210	-0.65515	-0.70621	-0.23325	-0.13245	16.4	13111	100
2025-5-24 9:5:45.544	WT901BLE68(801231B9234C)	-0.334	1.199	0.091	-9.033	-1.770	-141.113	97.93	-9.74	39.27	16.464	-51.254	-14.210	-0.65515	-0.70621	-0.23325	-0.13245	16.4	13111	100
2025-5-24 9:5:45.544	WT901BLE68(801231B9234C)	-0.385	1.226	0.070	-4.761	-5.310	-156.250	97.72	-6.39	39.05	16.464	-51.254	-14.210	-0.65515	-0.70621	-0.23325	-0.13245	16.4	13111	100
2025-5-24 9:5:45.545	WT901BLE68(801231B9234C)	-0.387	1.249	0.069	-1.160	-30.396	-163.879	97.59	-2.84	38.73	16.464	-51.254	-14.210	-0.65515	-0.70621	-0.23325	-0.13245	16.4	13111	100
2025-5-24 9:5:45.601	WT901BLE68(801231B9234C)	-0.391	1.278	0.070	1.343	-66.467	-165.710	97.48	0.82	37.93	16.464	-51.254	-14.210	-0.62616	-0.71078	-0.25275	-0.19678	16.4	13111	100
2025-5-24 9:5:45.601	WT901BLE68(801231B9234C)	-0.386	1.363	0.053	2.319	-102.783	-162.720	97.33	4.50	36.55	16.464	-51.254	-14.210	-0.62616	-0.71078	-0.25275	-0.19678	16.4	13111	100
2025-5-24 9:5:45.630	WT901BLE68(801231B9234C)	-0.314	1.452	0.031	-1.770	-136.658	-154.846	96.98	8.09	34.56	16.464	-51.254	-14.210	-0.62616	-0.71078	-0.25275	-0.19678	16.4	13111	100
2025-5-24 9:5:45.631	WT901BLE68(801231B9234C)	-0.224	1.438	0.022	-9.766	-156.311	-147.461	96.28	11.51	32.06	16.464	-51.254	-14.210	-0.62616	-0.71078	-0.25275	-0.19678	16.4	13111	100
2025-5-24 9:5:45.691	WT901BLE68(801231B9234C)	-0.164	1.335	0.017	-19.714	-159.790	-145.996	95.21	14.77	29.36	16.464	-51.254	-14.210	-0.62616	-0.71078	-0.25275	-0.19678	16.4	13111	100
2025-5-24 9:5:45.692	WT901BLE68(801231B9234C)	-0.121	1.214	0.004	-27.405	-151.794	-150.452	93.83	17.96	26.70	16.464	-51.254	-14.210	-0.62616	-0.71078	-0.25275	-0.19678	16.4	13111	100
2025-5-24 9:5:45.720	WT901BLE68(801231B9234C)	-0.087	1.128	0.010	-34.180	-137.939	-158.691	92.23	21.15	24.20	30.380	-44.198	-17.150	-0.62616	-0.71078	-0.25275	-0.19678	16.4	13111	100
2025-5-24 9:5:45.720	WT901BLE68(801231B9234C)	-0.061	1.044	0.016	-39.673	-120.483	-168.823	90.47	24.40	21.92	30.380	-44.198	-17.150	-0.62616	-0.71078	-0.25275	-0.19678	16.4	13111	100
2025-5-24 9:5:45.751	WT901BLE68(801231B9234C)	-0.063	0.992	0.018	-43.213	-98.572	-177.307	88.65	27.71	19.95	30.380	-44.198	-17.150	-0.62616	-0.71078	-0.25275	-0.19678	16.4	13111	100
2025-5-24 9:5:45.751	WT901BLE68(801231B9234C)	-0.104	0.952	0.019	-44.983	-75.256	-182.739	86.86	31.05	18.35	30.380	-44.198	-17.150	-0.62616	-0.71078	-0.25275	-0.19678	16.4	13111	100
2025-5-24 9:5:45.811	WT901BLE68(801231B9234C)	-0.140	0.938	0.018	-45.227	-59.143	-182.617	85.13	34.37	17.03	30.380	-44.198	-17.150	-0.62616	-0.71078	-0.25275	-0.19678	16.4	13111	100
2025-5-24 9:5:45.811	WT901BLE68(801231B9234C)	-0.144	0.916	0.016	-45.349	-52.246	-175.598	83.41	37.53	15.81	30.380	-44.198	-17.150	-0.62616	-0.71078	-0.25275	-0.19678	16.4	13111	100
2025-5-24 9:5:45.841	WT901BLE68(801231B9234C)	-0.141	0.871	0.014	-45.837	-49.072	-164.856	81.60	40.45	14.56	30.380	-44.198	-17.150	-0.62616	-0.71078	-0.25275	-0.19678	16.4	13111	100
2025-5-24 9:5:45.841	WT901BLE68(801231B9234C)	-0.134	0.827	0.021	-45.776	-44.800	-152.283	79.72	43.07	13.27	30.380	-44.198	-17.150	-0.62616	-0.71078	-0.25275	-0.19678	16.4	13111	100
2025-5-24 9:5:45.873	WT901BLE68(801231B9234C)	-0.124	0.815	0.016	-43.640	-37.415	-137.939	77.89	45.38	12.06	30.380	-44.198	-17.150	-0.62616	-0.71078	-0.25275	-0.19678	16.4	13111	100
2025-5-24 9:5:45.873	WT901BLE68(801231B9234C)	-0.106	0.815	0.012	-41.992	-25.513	-121.155	76.23	47.38	11.07	30.380	-44.198	-17.150	-0.62616	-0.71078	-0.25275	-0.19678	16.4	13111	100
2025-5-24 9:5:45.931	WT901BLE68(801231B9234C)	-0.101	0.854	0.003	-38.269	-9.399	-102.661	74.95	49.05	10.54	30.380	-44.198	-17.150	-0.74127	-0.51910	-0.38190	0.18729	16.4	13111	100
2025-5-24 9:5:45.932	WT901BLE68(801231B9234C)	-0.103	0.906	-0.012	-35.339	10.010	-79.712	74.23	50.38	10.65	30.380	-44.198	-17.150	-0.74127	-0.51910	-0.38190	0.18729	16.4	13111	100
2025-5-24 9:5:45.960	WT901BLE68(801231B9234C)	-0.123	0.875	-0.014	-33.875	30.029	-53.345	74.15	51.32	11.55	30.380	-44.198	-17.150	-0.74127	-0.51910	-0.38190	0.18729	16.4	13111	100
2025-5-24 9:5:45.960	WT901BLE68(801231B9234C)	-0.171	0.828	-0.002	-23.926	47.363	-24.597	74.84	51.80	13.26	30.380	-44.198	-17.150	-0.74127	-0.51910	-0.38190	0.18729	16.4	13111	100
2025-5-24 9:5:45.991	WT901BLE68(801231B9234C)	-0.193	0.912	-0.011	-9.644	60.181	10.864	76.35	51.70	15.67	30.380	-44.198	-17.150	-0.74127	-0.51910	-0.38190	0.18729	16.4	13111	100
2025-5-24 9:5:45.991	WT901BLE68(801231B9234C)	-0.218	0.978	-0.013	1.526	69.336	53.040	78.48	50.82	18.61	30.380	-44.198	-17.150	-0.74127	-0.51910	-0.38190	0.18729	16.4	13111	100
2025-5-24 9:5:46.53	WT901BLE68(801231B9234C)	-0.269	1.002	-0.005	15.747	77.637	100.098	81.09	49.03	21.88	30.380	-44.198	-17.150	-0.74127	-0.51910	-0.38190	0.18729	16.4	13111	100
2025-5-24 9:5:46.53	WT901BLE68(801231B9234C)	-0.287	0.927	0.028	31.616	81.116	146.912	83.94	46.25	25.20	30.380	-44.198	-17.150	-0.74127	-0.51910	-0.38190	0.18729	16.4	13111	100
2025-5-24 9:5:46.84	WT901BLE68(801231B9234C)	-0.308	0.861	0.105	52.185	75.134	185.181	86.74	42.58	28.13	30.380	-44.198	-17.150	-0.74127	-0.51910	-0.38190	0.18729	16.4	13111	100
2025-5-24 9:5:46.84	WT901BLE68(801231B9234C)	-0.362	0.925	0.185	70.435	57.983	214.905	89.29	38.21	30.35	43.414	-18.914	-25.088	-0.74127	-0.51910	-0.38190	0.18729	16.4	13111	100
2025-5-24 9:5:46.113	WT901BLE68(801231B9234C)	-0.385	1.120	0.255	77.148	23.499	235.962	91.31	33.37	31.53	43.414	-18.914	-25.088	-0.74127	-0.51910	-0.38190	0.18729	16.4	13111	100
2025-5-24 9:5:46.113	WT901BLE68(801231B9234C)	-0.333	1.312	0.277	70.557	-20.935	249.939	92.56	28.28	31.51	43.414	-18.914	-25.088	-0.74127	-0.51910	-0.38190	0.18729	16.4	13111	100
2025-5-24 9:5:46.184	WT901BLE68(801231B9234C)	-0.227	1.409	0.227	61.157	-64.819	255.249	93.14	23.12	30.42	43.414	-18.914	-25.088	-0.74127	-0.51910	-0.38190	0.18729	16.4	13111	100
2025-5-24 9:5:46.184	WT901BLE68(801231B9234C)	-0.101	1.430	0.093	60.669	-85.388	252.747	93.53	18.07	28.70	43.414	-18.914	-25.088	-0.74127	-0.51910	-0.38190	0.18729	16.4	13111	100
2025-5-24 9:5:46.208	WT901BLE68(801231B9234C)	-0.000	1.397	-0.005	62.134	-69.824	244.263	94.11	13.18	27.03	43.414	-18.914	-25.088	-0.74127	-0.51910	-0.38190	0.18729	16.4	13111	100
2025-5-24 9:5:46.208	WT901BLE68(801231B9234C)	0.035	1.281	0.023	61.890	-19.653	225.464	95.01	8.59	26.13	43.414	-18.914	-25.088	-0.74127	-0.51910	-0.38190	0.18729	16.4	13111	100
2025-5-24 9:5:46.230	WT901BLE68(801231B9234C)	-0.074	1.165	0.115	58.228	44.556	197.754	96.06	4.40	26.42	43.414	-18.914	-25.088	-0.74127	-0.51910	-0.38190	0.18729	16.4	13111	100
2025-5-24 9:5:46.230	WT901BLE68(801231B9234C)	-0.210	1.082	0.160	50.293	95.276	167.175	97.01	0.70	27.86	43.414	-18.914	-25.088	-0.74127	-0.51910	-0.38190	0.18729	16.4	13111	100
2025-5-24 9:5:46.293	WT901BLE68(801231B9234C)	-0.250	1.023	0.161	43.762	117.737	142.029	97.70	-2.52	29.92	43.414	-18.914	-25.088	-0.74127	-0.51910	-0.38190	0.18729	16.4	13111	100
2025-5-24 9:5:46.293	WT901BLE68(801231B9234C)	-0.278	0.995	0.125	37.903	126.099	119.446	98.15	-5.30	32.21	43.414	-18.914	-25.088	-0.74127	-0.51910	-0.38190	0.18729	16.4	13111	100
2025-5-24 9:5:46.323	WT901BLE68(801231B9234C)	-0.328	1.001	0.095	31.311	129.028	97.961	98.35	-7.61	34.62	43.414	-18.914	-25.088	-0.60043	-0.73700	-0.18231	-0.25092	16.4	13111	100
2025-5-24 9:5:46.323	WT901BLE68(801231B9234C)	-0.350	1.031	0.072	24.902	124.329	82.336	98.34	-9.51	36.99	43.414	-18.914	-25.088	-0.60043	-0.73700	-0.18231	-0.25092	16.4	13111	100
2025-5-24 9:5:46.472	WT901BLE68(801231B9234C)	-0.358	1.047	0.070	18.921	113.342	73.792	98.18	-11.11	39.14	43.414	-18.914	-25.088	-0.60043	-0.73700	-0.18231	-0.25092	16.4	13111	100
2025-5-24 9:5:46.473	WT901BLE68(801231B9234C)	-0.370	1.056	0.109	13.245	102.905	70.496	97.93	-12.54	41.03	43.414	-18.914	-25.088	-0.60043	-0.73700	-0.18231	-0.25092	16.4	13111	100
2025-5-24 9:5:46.681	WT901BLE68(801231B9234C)	-0.364	1.006	0.163	7.263	96.313	71.960	97.57	-13.88	42.69	43.414	-18.914	-25.088	-0.60043	-0.73700	-0.18231	-0.25092	16.4	13111	100
