time	DeviceName	AccX(g)	AccY(g)	AccZ(g)	AsX(°/s)	AsY(°/s)	AsZ(°/s)	AngleX(°)	AngleY(°)	AngleZ(°)	HX(uT)	HY(uT)	HZ(uT)	Q0()	Q1()	Q2()	Q3()	Temperature(°C)	Version()	Battery level(%)
2025-5-25 10:41:6.174	WT901BLE68(801231B9234C)	-0.212	0.971	0.197	1.282	0.366	1.343	79.27	11.07	163.15	15.386	-44.786	17.542	0.18558	0.03366	0.63132	0.75217	21.0	13111	100
2025-5-25 10:41:6.174	WT901BLE68(801231B9234C)	-0.212	0.967	0.192	-0.061	-0.244	1.465	79.27	11.06	163.18	15.386	-44.786	17.542	0.18558	0.03366	0.63132	0.75217	21.0	13111	100
2025-5-25 10:41:6.203	WT901BLE68(801231B9234C)	-0.213	0.963	0.189	-1.160	0.061	1.831	79.24	11.04	163.22	15.386	-44.786	17.542	0.18558	0.03366	0.63132	0.75217	21.0	13111	100
2025-5-25 10:41:6.203	WT901BLE68(801231B9234C)	-0.217	0.953	0.185	-2.380	0.000	2.197	79.19	11.02	163.26	15.386	-44.786	17.542	0.18558	0.03366	0.63132	0.75217	21.0	13111	100
2025-5-25 10:41:6.234	WT901BLE68(801231B9234C)	-0.216	0.943	0.179	-3.662	0.244	1.892	79.12	11.00	163.31	15.386	-44.786	17.542	0.18558	0.03366	0.63132	0.75217	21.0	13111	100
2025-5-25 10:41:6.234	WT901BLE68(801231B9234C)	-0.222	0.943	0.169	-4.395	-0.061	1.526	79.03	10.99	163.35	15.386	-44.786	17.542	0.18558	0.03366	0.63132	0.75217	21.0	13111	100
2025-5-25 10:41:6.296	WT901BLE68(801231B9234C)	-0.228	0.939	0.161	-4.944	-0.061	1.282	78.93	10.98	163.39	15.386	-44.786	17.542	0.18558	0.03366	0.63132	0.75217	21.0	13111	100
2025-5-25 10:41:6.296	WT901BLE68(801231B9234C)	-0.231	0.937	0.154	-4.761	-0.793	1.099	78.83	10.98	163.43	15.386	-44.786	17.542	0.18558	0.03366	0.63132	0.75217	21.0	13111	100
2025-5-25 10:41:6.323	WT901BLE68(801231B9234C)	-0.230	0.944	0.146	-4.272	-2.563	0.977	78.74	10.98	163.44	15.386	-44.786	17.542	0.18558	0.03366	0.63132	0.75217	21.0	13111	100
2025-5-25 10:41:6.323	WT901BLE68(801231B9234C)	-0.226	0.949	0.141	-4.150	-3.540	0.244	78.65	10.99	163.43	15.386	-44.786	17.542	0.16812	0.02206	0.63779	0.75122	21.0	13111	100
2025-5-25 10:41:6.357	WT901BLE68(801231B9234C)	-0.222	0.967	0.125	-3.174	-3.113	-0.305	78.59	11.01	163.40	15.386	-44.786	17.542	0.16812	0.02206	0.63779	0.75122	21.0	13111	100
2025-5-25 10:41:6.357	WT901BLE68(801231B9234C)	-0.229	0.960	0.127	-2.991	-0.366	-1.038	78.54	11.05	163.42	15.386	-44.786	17.542	0.16812	0.02206	0.63779	0.75122	21.0	13111	100
2025-5-25 10:41:6.414	WT901BLE68(801231B9234C)	-0.239	0.945	0.129	-2.258	0.000	-3.784	78.51	11.13	163.47	15.386	-44.786	17.542	0.16812	0.02206	0.63779	0.75122	21.0	13111	100
2025-5-25 10:41:6.414	WT901BLE68(801231B9234C)	-0.233	0.959	0.119	-1.709	-1.587	-5.981	78.49	11.26	163.48	15.386	-44.786	17.542	0.16812	0.02206	0.63779	0.75122	21.0	13111	100
2025-5-25 10:41:6.443	WT901BLE68(801231B9234C)	-0.225	0.956	0.116	-0.671	-2.930	-6.653	78.48	11.40	163.45	15.386	-44.786	17.542	0.16812	0.02206	0.63779	0.75122	21.0	13111	100
2025-5-25 10:41:6.443	WT901BLE68(801231B9234C)	-0.225	0.958	0.119	0.305	-4.395	-7.996	78.49	11.57	163.39	15.386	-44.786	17.542	0.16812	0.02206	0.63779	0.75122	21.0	13111	100
2025-5-25 10:41:6.477	WT901BLE68(801231B9234C)	-0.221	0.966	0.118	0.916	-4.272	-8.606	78.51	11.74	163.32	15.386	-44.786	17.542	0.16812	0.02206	0.63779	0.75122	21.0	13111	100
2025-5-25 10:41:6.477	WT901BLE68(801231B9234C)	-0.218	0.959	0.117	1.587	-3.906	-9.033	78.55	11.93	163.25	15.386	-44.786	17.542	0.16812	0.02206	0.63779	0.75122	21.0	13111	100
2025-5-25 10:41:6.534	WT901BLE68(801231B9234C)	-0.215	0.967	0.117	2.258	-2.930	-10.071	78.61	12.12	163.19	15.680	-44.688	17.150	0.16812	0.02206	0.63779	0.75122	21.0	13111	100
2025-5-25 10:41:6.534	WT901BLE68(801231B9234C)	-0.215	0.961	0.122	2.686	-1.160	-10.864	78.68	12.34	163.15	15.680	-44.688	17.150	0.16812	0.02206	0.63779	0.75122	21.0	13111	100
2025-5-25 10:41:6.563	WT901BLE68(801231B9234C)	-0.219	0.955	0.123	3.418	-0.671	-12.085	78.77	12.58	163.11	15.680	-44.688	17.150	0.16812	0.02206	0.63779	0.75122	21.0	13111	100
2025-5-25 10:41:6.563	WT901BLE68(801231B9234C)	-0.220	0.950	0.125	3.906	-1.160	-12.451	78.87	12.83	163.08	15.680	-44.688	17.150	0.16812	0.02206	0.63779	0.75122	21.0	13111	100
2025-5-25 10:41:6.596	WT901BLE68(801231B9234C)	-0.216	0.944	0.130	4.761	-3.113	-12.756	78.98	13.07	163.00	15.680	-44.688	17.150	0.16812	0.02206	0.63779	0.75122	21.0	13111	100
2025-5-25 10:41:6.596	WT901BLE68(801231B9234C)	-0.208	0.952	0.127	5.493	-5.066	-12.451	79.09	13.31	162.88	15.680	-44.688	17.150	0.16812	0.02206	0.63779	0.75122	21.0	13111	100
2025-5-25 10:41:6.655	WT901BLE68(801231B9234C)	-0.210	0.954	0.134	6.104	-5.676	-10.864	79.20	13.52	162.74	15.680	-44.688	17.150	0.16812	0.02206	0.63779	0.75122	21.0	13111	100
2025-5-25 10:41:6.655	WT901BLE68(801231B9234C)	-0.216	0.963	0.131	6.836	-5.981	-9.033	79.33	13.69	162.59	15.680	-44.688	17.150	0.16812	0.02206	0.63779	0.75122	21.0	13111	100
2025-5-25 10:41:6.688	WT901BLE68(801231B9234C)	-0.212	0.971	0.136	7.202	-6.531	-6.836	79.46	13.81	162.44	15.680	-44.688	17.150	0.16812	0.02206	0.63779	0.75122	21.0	13111	100
2025-5-25 10:41:6.688	WT901BLE68(801231B9234C)	-0.214	0.981	0.137	7.507	-6.531	-4.761	79.61	13.89	162.28	15.680	-44.688	17.150	0.16812	0.02206	0.63779	0.75122	21.0	13111	100
2025-5-25 10:41:6.718	WT901BLE68(801231B9234C)	-0.221	0.978	0.141	7.935	-6.653	-3.296	79.75	13.93	162.13	15.680	-44.688	17.150	0.16812	0.02206	0.63779	0.75122	21.0	13111	100
2025-5-25 10:41:6.718	WT901BLE68(801231B9234C)	-0.230	0.986	0.143	8.484	-7.568	-2.258	79.90	13.94	161.97	15.680	-44.688	17.150	0.19342	0.01291	0.64752	0.73691	21.0	13111	100
2025-5-25 10:41:6.774	WT901BLE68(801231B9234C)	-0.230	0.991	0.157	8.850	-10.132	-0.671	80.05	13.93	161.77	15.680	-44.688	17.150	0.19342	0.01291	0.64752	0.73691	21.0	13111	100
2025-5-25 10:41:6.774	WT901BLE68(801231B9234C)	-0.218	0.998	0.169	9.033	-14.160	0.305	80.18	13.88	161.50	15.680	-44.688	17.150	0.19342	0.01291	0.64752	0.73691	21.0	13111	100
2025-5-25 10:41:6.804	WT901BLE68(801231B9234C)	-0.206	1.006	0.163	8.423	-16.541	1.221	80.29	13.80	161.18	15.680	-44.688	17.150	0.19342	0.01291	0.64752	0.73691	21.0	13111	100
2025-5-25 10:41:6.804	WT901BLE68(801231B9234C)	-0.196	0.972	0.170	6.287	-15.137	0.671	80.37	13.72	160.86	15.680	-44.688	17.150	0.19342	0.01291	0.64752	0.73691	21.0	13111	100
2025-5-25 10:41:6.835	WT901BLE68(801231B9234C)	-0.193	0.938	0.171	4.639	-13.977	-1.648	80.41	13.68	160.57	15.680	-44.688	17.150	0.19342	0.01291	0.64752	0.73691	21.0	13111	100
2025-5-25 10:41:6.835	WT901BLE68(801231B9234C)	-0.197	0.942	0.166	2.930	-11.719	-3.113	80.42	13.68	160.30	15.680	-44.688	17.150	0.19342	0.01291	0.64752	0.73691	21.0	13111	100
2025-5-25 10:41:6.897	WT901BLE68(801231B9234C)	-0.199	0.936	0.170	1.587	-8.850	-2.747	80.41	13.69	160.09	15.680	-44.688	17.150	0.19342	0.01291	0.64752	0.73691	21.0	13111	100
2025-5-25 10:41:6.897	WT901BLE68(801231B9234C)	-0.201	0.931	0.173	0.977	-8.545	-1.343	80.39	13.69	159.91	15.680	-44.688	17.150	0.19342	0.01291	0.64752	0.73691	21.0	13111	100
2025-5-25 10:41:6.928	WT901BLE68(801231B9234C)	-0.201	0.938	0.172	0.000	-7.629	1.160	80.36	13.65	159.75	15.680	-44.688	17.150	0.19342	0.01291	0.64752	0.73691	21.0	13111	100
2025-5-25 10:41:6.928	WT901BLE68(801231B9234C)	-0.202	0.945	0.164	-0.977	-5.493	3.784	80.31	13.56	159.63	18.130	-43.708	18.130	0.19342	0.01291	0.64752	0.73691	21.0	13111	100
2025-5-25 10:41:6.956	WT901BLE68(801231B9234C)	-0.213	0.957	0.155	-1.892	-2.563	5.798	80.26	13.44	159.57	18.130	-43.708	18.130	0.19342	0.01291	0.64752	0.73691	21.0	13111	100
2025-5-25 10:41:6.957	WT901BLE68(801231B9234C)	-0.227	0.962	0.157	-2.563	0.305	5.920	80.21	13.30	159.57	18.130	-43.708	18.130	0.19342	0.01291	0.64752	0.73691	21.0	13111	100
2025-5-25 10:41:7.15	WT901BLE68(801231B9234C)	-0.225	0.961	0.157	-3.052	1.343	5.554	80.16	13.18	159.61	18.130	-43.708	18.130	0.19342	0.01291	0.64752	0.73691	21.0	13111	100
2025-5-25 10:41:7.15	WT901BLE68(801231B9234C)	-0.225	0.960	0.148	-3.296	0.549	3.662	80.10	13.10	159.65	18.130	-43.708	18.130	0.19342	0.01291	0.64752	0.73691	21.0	13111	100
2025-5-25 10:41:7.43	WT901BLE68(801231B9234C)	-0.222	0.948	0.144	-3.418	0.366	1.465	80.04	13.05	159.66	18.130	-43.708	18.130	0.19342	0.01291	0.64752	0.73691	21.0	13111	100
2025-5-25 10:41:7.44	WT901BLE68(801231B9234C)	-0.219	0.942	0.139	-3.052	0.183	-0.977	79.97	13.05	159.68	18.130	-43.708	18.130	0.19342	0.01291	0.64752	0.73691	21.0	13111	100
2025-5-25 10:41:7.73	WT901BLE68(801231B9234C)	-0.228	0.943	0.141	-2.319	0.916	-2.686	79.93	13.10	159.69	18.130	-43.708	18.130	0.19342	0.01291	0.64752	0.73691	21.0	13111	100
2025-5-25 10:41:7.73	WT901BLE68(801231B9234C)	-0.223	0.972	0.146	-1.892	1.465	-3.174	79.90	13.16	159.72	18.130	-43.708	18.130	0.19342	0.01291	0.64752	0.73691	21.0	13111	100
2025-5-25 10:41:7.135	WT901BLE68(801231B9234C)	-0.204	0.979	0.145	-2.502	2.625	-2.869	79.87	13.23	159.76	18.130	-43.708	18.130	0.19342	0.01291	0.64752	0.73691	21.0	13111	100
2025-5-25 10:41:7.135	WT901BLE68(801231B9234C)	-0.205	0.958	0.140	-3.662	5.676	-3.967	79.83	13.31	159.84	18.130	-43.708	18.130	0.19342	0.01291	0.64752	0.73691	21.0	13111	100
2025-5-25 10:41:7.164	WT901BLE68(801231B9234C)	-0.213	0.953	0.142	-4.578	9.949	-6.042	79.79	13.44	159.99	18.130	-43.708	18.130	0.20313	0.02689	0.64603	0.73523	21.0	13111	100
2025-5-25 10:41:7.164	WT901BLE68(801231B9234C)	-0.217	0.948	0.145	-4.700	12.329	-8.301	79.76	13.62	160.20	18.130	-43.708	18.130	0.20313	0.02689	0.64603	0.73523	21.0	13111	100
2025-5-25 10:41:7.199	WT901BLE68(801231B9234C)	-0.208	0.946	0.144	-4.700	12.329	-9.705	79.73	13.84	160.42	18.130	-43.708	18.130	0.20313	0.02689	0.64603	0.73523	21.0	13111	100
2025-5-25 10:41:7.199	WT901BLE68(801231B9234C)	-0.200	0.934	0.147	-4.700	10.986	-10.376	79.69	14.06	160.60	18.130	-43.708	18.130	0.20313	0.02689	0.64603	0.73523	21.0	13111	100
2025-5-25 10:41:7.255	WT901BLE68(801231B9234C)	-0.194	0.944	0.137	-4.211	10.498	-10.498	79.66	14.29	160.77	18.130	-43.708	18.130	0.20313	0.02689	0.64603	0.73523	21.0	13111	100
2025-5-25 10:41:7.255	WT901BLE68(801231B9234C)	-0.190	0.957	0.136	-4.333	13.977	-9.277	79.65	14.51	160.97	18.130	-43.708	18.130	0.20313	0.02689	0.64603	0.73523	21.0	13111	100
2025-5-25 10:41:7.287	WT901BLE68(801231B9234C)	-0.202	0.943	0.149	-4.089	17.212	-8.301	79.65	14.71	161.23	18.130	-43.708	18.130	0.20313	0.02689	0.64603	0.73523	21.0	13111	100
2025-5-25 10:41:7.287	WT901BLE68(801231B9234C)	-0.196	0.950	0.140	-3.540	17.273	-6.897	79.67	14.89	161.52	18.130	-43.708	18.130	0.20313	0.02689	0.64603	0.73523	21.0	13111	100
2025-5-25 10:41:7.317	WT901BLE68(801231B9234C)	-0.187	0.955	0.139	-3.601	18.188	-4.333	79.69	15.02	161.82	18.130	-43.708	18.130	0.20313	0.02689	0.64603	0.73523	21.0	13111	100
2025-5-25 10:41:7.317	WT901BLE68(801231B9234C)	-0.196	0.959	0.147	-2.991	19.958	-2.563	79.74	15.11	162.15	18.620	-43.806	17.836	0.20313	0.02689	0.64603	0.73523	21.0	13111	100
2025-5-25 10:41:7.375	WT901BLE68(801231B9234C)	-0.203	0.968	0.157	-2.930	22.034	-1.221	79.80	15.18	162.52	18.620	-43.806	17.836	0.20313	0.02689	0.64603	0.73523	21.0	13111	100
2025-5-25 10:41:7.375	WT901BLE68(801231B9234C)	-0.193	0.973	0.164	-2.808	21.973	-0.122	79.87	15.23	162.91	18.620	-43.806	17.836	0.20313	0.02689	0.64603	0.73523	21.0	13111	100
2025-5-25 10:41:7.404	WT901BLE68(801231B9234C)	-0.185	0.993	0.168	-3.296	22.583	0.854	79.93	15.26	163.30	18.620	-43.806	17.836	0.20313	0.02689	0.64603	0.73523	21.0	13111	100
2025-5-25 10:41:7.404	WT901BLE68(801231B9234C)	-0.189	1.001	0.172	-4.883	26.428	1.892	79.98	15.27	163.73	18.620	-43.806	17.836	0.20313	0.02689	0.64603	0.73523	21.0	13111	100
2025-5-25 10:41:7.434	WT901BLE68(801231B9234C)	-0.201	0.993	0.184	-6.775	30.029	2.563	80.01	15.28	164.25	18.620	-43.806	17.836	0.20313	0.02689	0.64603	0.73523	21.0	13111	100
2025-5-25 10:41:7.434	WT901BLE68(801231B9234C)	-0.196	0.999	0.194	-8.423	30.029	2.808	80.01	15.28	164.79	18.620	-43.806	17.836	0.20313	0.02689	0.64603	0.73523	21.0	13111	100
2025-5-25 10:41:7.555	WT901BLE68(801231B9234C)	-0.185	0.985	0.191	-10.254	28.992	3.723	79.97	15.27	165.32	18.620	-43.806	17.836	0.20313	0.02689	0.64603	0.73523	21.0	13111	100
2025-5-25 10:41:7.555	WT901BLE68(801231B9234C)	-0.181	0.960	0.186	-11.963	29.480	3.906	79.89	15.24	165.85	18.620	-43.806	17.836	0.20313	0.02689	0.64603	0.73523	21.0	13111	100
2025-5-25 10:41:7.556	WT901BLE68(801231B9234C)	-0.187	0.933	0.176	-13.306	31.189	4.517	79.78	15.22	166.40	18.620	-43.806	17.836	0.20313	0.02689	0.64603	0.73523	21.0	13111	100
2025-5-25 10:41:7.557	WT901BLE68(801231B9234C)	-0.194	0.916	0.161	-13.184	32.166	5.981	79.68	15.18	166.98	18.620	-43.806	17.836	0.16531	-0.02576	0.64551	0.74515	21.0	13111	100
2025-5-25 10:41:7.557	WT901BLE68(801231B9234C)	-0.204	0.905	0.149	-12.085	32.104	8.423	79.60	15.10	167.57	18.620	-43.806	17.836	0.16531	-0.02576	0.64551	0.74515	21.0	13111	100
2025-5-25 10:41:7.557	WT901BLE68(801231B9234C)	-0.215	0.894	0.132	-9.460	29.602	12.268	79.55	14.96	168.15	18.620	-43.806	17.836	0.16531	-0.02576	0.64551	0.74515	21.0	13111	100
2025-5-25 10:41:7.615	WT901BLE68(801231B9234C)	-0.229	0.891	0.119	-5.676	26.306	18.005	79.55	14.71	168.67	18.620	-43.806	17.836	0.16531	-0.02576	0.64551	0.74515	21.0	13111	100
2025-5-25 10:41:7.615	WT901BLE68(801231B9234C)	-0.253	0.898	0.114	-0.916	21.301	24.719	79.63	14.33	169.15	18.620	-43.806	17.836	0.16531	-0.02576	0.64551	0.74515	21.0	13111	100
2025-5-25 10:41:7.675	WT901BLE68(801231B9234C)	-0.239	0.897	0.113	4.150	13.367	31.494	79.79	13.80	169.52	18.620	-43.806	17.836	0.16531	-0.02576	0.64551	0.74515	21.0	13111	100
2025-5-25 10:41:7.675	WT901BLE68(801231B9234C)	-0.262	0.889	0.116	10.315	7.385	38.330	80.04	13.13	169.79	18.620	-43.806	17.836	0.16531	-0.02576	0.64551	0.74515	21.0	13111	100
2025-5-25 10:41:7.707	WT901BLE68(801231B9234C)	-0.288	0.909	0.125	15.015	-0.244	41.565	80.35	12.35	169.95	18.620	-43.806	17.836	0.16531	-0.02576	0.64551	0.74515	21.0	13111	100
2025-5-25 10:41:7.707	WT901BLE68(801231B9234C)	-0.275	0.947	0.134	18.616	-10.925	46.875	80.71	11.48	169.94	18.620	-43.806	17.836	0.16531	-0.02576	0.64551	0.74515	21.0	13111	100
2025-5-25 10:41:7.735	WT901BLE68(801231B9234C)	-0.258	0.971	0.163	19.226	-20.264	48.828	81.06	10.52	169.78	18.620	-43.806	17.836	0.16531	-0.02576	0.64551	0.74515	21.0	13111	100
2025-5-25 10:41:7.736	WT901BLE68(801231B9234C)	-0.241	0.984	0.160	18.860	-26.001	47.241	81.38	9.56	169.48	12.936	-44.884	18.816	0.16531	-0.02576	0.64551	0.74515	21.0	13111	100
2025-5-25 10:41:7.799	WT901BLE68(801231B9234C)	-0.238	1.033	0.159	15.137	-24.292	42.847	81.64	8.68	169.17	12.936	-44.884	18.816	0.16531	-0.02576	0.64551	0.74515	21.0	13111	100
2025-5-25 10:41:7.800	WT901BLE68(801231B9234C)	-0.231	1.045	0.162	11.292	-18.005	37.781	81.84	7.92	168.94	12.936	-44.884	18.816	0.16531	-0.02576	0.64551	0.74515	21.0	13111	100
2025-5-25 10:41:7.824	WT901BLE68(801231B9234C)	-0.237	1.057	0.165	7.385	-11.902	29.724	81.97	7.31	168.84	12.936	-44.884	18.816	0.16531	-0.02576	0.64551	0.74515	21.0	13111	100
2025-5-25 10:41:7.824	WT901BLE68(801231B9234C)	-0.248	1.074	0.173	3.418	-7.141	20.386	82.03	6.90	168.83	12.936	-44.884	18.816	0.16531	-0.02576	0.64551	0.74515	21.0	13111	100
2025-5-25 10:41:7.853	WT901BLE68(801231B9234C)	-0.251	1.071	0.173	-0.061	-5.432	11.658	82.02	6.67	168.86	12.936	-44.884	18.816	0.16531	-0.02576	0.64551	0.74515	21.0	13111	100
2025-5-25 10:41:7.853	WT901BLE68(801231B9234C)	-0.258	1.075	0.180	-3.113	-6.348	5.066	81.95	6.59	168.88	12.936	-44.884	18.816	0.16531	-0.02576	0.64551	0.74515	21.0	13111	100
2025-5-25 10:41:7.885	WT901BLE68(801231B9234C)	-0.242	1.063	0.197	-6.409	-10.132	0.000	81.80	6.62	168.84	12.936	-44.884	18.816	0.16531	-0.02576	0.64551	0.74515	21.0	13111	100
2025-5-25 10:41:7.885	WT901BLE68(801231B9234C)	-0.217	1.073	0.209	-9.521	-16.724	-3.845	81.57	6.72	168.68	12.936	-44.884	18.816	0.16531	-0.02576	0.64551	0.74515	21.0	13111	100
2025-5-25 10:41:7.975	WT901BLE68(801231B9234C)	-0.208	1.072	0.209	-13.855	-18.616	-5.920	81.27	6.85	168.42	12.936	-44.884	18.816	0.16531	-0.02576	0.64551	0.74515	21.0	13111	100
2025-5-25 10:41:7.975	WT901BLE68(801231B9234C)	-0.201	1.074	0.223	-18.616	-19.043	-7.690	80.86	7.00	168.16	12.936	-44.884	18.816	0.16531	-0.02576	0.64551	0.74515	21.0	13111	100
2025-5-25 10:41:7.976	WT901BLE68(801231B9234C)	-0.188	1.062	0.236	-24.109	-19.592	-9.399	80.35	7.19	167.87	12.936	-44.884	18.816	0.11835	0.02463	0.64767	0.75220	21.0	13111	100
2025-5-25 10:41:7.976	WT901BLE68(801231B9234C)	-0.173	1.064	0.239	-29.175	-21.301	-11.353	79.74	7.39	167.53	12.936	-44.884	18.816	0.11835	0.02463	0.64767	0.75220	21.0	13111	100
2025-5-25 10:41:8.4	WT901BLE68(801231B9234C)	-0.159	1.066	0.248	-34.668	-21.240	-13.123	79.01	7.61	167.17	12.936	-44.884	18.816	0.11835	0.02463	0.64767	0.75220	21.0	13111	100
2025-5-25 10:41:8.4	WT901BLE68(801231B9234C)	-0.139	1.055	0.249	-39.795	-20.813	-15.381	78.19	7.86	166.79	12.936	-44.884	18.816	0.11835	0.02463	0.64767	0.75220	21.0	13111	100
2025-5-25 10:41:8.65	WT901BLE68(801231B9234C)	-0.126	1.045	0.247	-44.189	-20.935	-17.883	77.27	8.14	166.39	12.936	-44.884	18.816	0.11835	0.02463	0.64767	0.75220	21.0	13111	100
2025-5-25 10:41:8.65	WT901BLE68(801231B9234C)	-0.118	1.052	0.249	-48.096	-20.691	-19.653	76.28	8.45	165.96	12.936	-44.884	18.816	0.11835	0.02463	0.64767	0.75220	21.0	13111	100
2025-5-25 10:41:8.98	WT901BLE68(801231B9234C)	-0.104	1.044	0.253	-51.392	-23.010	-20.264	75.22	8.75	165.49	12.936	-44.884	18.816	0.11835	0.02463	0.64767	0.75220	21.0	13111	100
2025-5-25 10:41:8.98	WT901BLE68(801231B9234C)	-0.086	1.038	0.258	-54.077	-27.954	-19.897	74.10	9.01	164.92	12.936	-44.884	18.816	0.11835	0.02463	0.64767	0.75220	21.0	13111	100
2025-5-25 10:41:8.124	WT901BLE68(801231B9234C)	-0.080	1.034	0.254	-55.359	-35.645	-17.456	72.92	9.18	164.20	12.936	-44.884	18.816	0.11835	0.02463	0.64767	0.75220	21.0	13111	100
2025-5-25 10:41:8.124	WT901BLE68(801231B9234C)	-0.040	0.976	0.232	-52.429	-41.260	-13.977	71.77	9.23	163.35	12.642	-46.158	13.328	0.11835	0.02463	0.64767	0.75220	21.0	13111	100
2025-5-25 10:41:8.185	WT901BLE68(801231B9234C)	-0.028	0.917	0.253	-46.570	-45.776	-6.287	70.72	9.10	162.43	12.642	-46.158	13.328	0.11835	0.02463	0.64767	0.75220	21.0	13111	100
2025-5-25 10:41:8.185	WT901BLE68(801231B9234C)	-0.006	0.877	0.291	-39.185	-52.917	-1.587	69.81	8.79	161.43	12.642	-46.158	13.328	0.11835	0.02463	0.64767	0.75220	21.0	13111	100
2025-5-25 10:41:8.214	WT901BLE68(801231B9234C)	0.021	0.887	0.327	-29.358	-61.768	3.540	69.07	8.33	160.29	12.642	-46.158	13.328	0.11835	0.02463	0.64767	0.75220	21.0	13111	100
2025-5-25 10:41:8.214	WT901BLE68(801231B9234C)	0.039	0.897	0.353	-22.156	-71.106	6.165	68.48	7.71	159.00	12.642	-46.158	13.328	0.11835	0.02463	0.64767	0.75220	21.0	13111	100
2025-5-25 10:41:8.244	WT901BLE68(801231B9234C)	0.065	0.887	0.366	-17.822	-79.712	8.484	67.98	6.97	157.56	12.642	-46.158	13.328	0.11835	0.02463	0.64767	0.75220	21.0	13111	100
2025-5-25 10:41:8.244	WT901BLE68(801231B9234C)	0.101	0.865	0.377	-14.282	-86.365	11.047	67.56	6.11	156.00	12.642	-46.158	13.328	0.11835	0.02463	0.64767	0.75220	21.0	13111	100
2025-5-25 10:41:8.306	WT901BLE68(801231B9234C)	0.128	0.879	0.363	-12.146	-87.646	20.508	67.21	5.10	154.43	12.642	-46.158	13.328	0.11835	0.02463	0.64767	0.75220	21.0	13111	100
2025-5-25 10:41:8.306	WT901BLE68(801231B9234C)	0.158	0.828	0.343	-11.292	-79.956	27.039	66.92	3.95	153.02	12.642	-46.158	13.328	0.11835	0.02463	0.64767	0.75220	21.0	13111	100
2025-5-25 10:41:8.337	WT901BLE68(801231B9234C)	0.162	0.818	0.340	-10.254	-65.613	30.701	66.69	2.80	151.85	12.642	-46.158	13.328	0.11835	0.02463	0.64767	0.75220	21.0	13111	100
2025-5-25 10:41:8.337	WT901BLE68(801231B9234C)	0.141	0.819	0.337	-10.559	-47.485	35.156	66.48	1.70	151.03	12.642	-46.158	13.328	0.21341	0.13483	0.53461	0.80646	21.0	13111	100
2025-5-25 10:41:8.366	WT901BLE68(801231B9234C)	0.107	0.823	0.343	-10.681	-32.166	39.673	66.29	0.65	150.56	12.642	-46.158	13.328	0.21341	0.13483	0.53461	0.80646	21.0	13111	100
2025-5-25 10:41:8.366	WT901BLE68(801231B9234C)	0.066	0.831	0.350	-10.071	-23.865	42.908	66.10	-0.38	150.31	12.642	-46.158	13.328	0.21341	0.13483	0.53461	0.80646	21.0	13111	100
2025-5-25 10:41:8.425	WT901BLE68(801231B9234C)	0.059	0.845	0.369	-7.813	-22.400	45.105	65.95	-1.42	150.18	12.642	-46.158	13.328	0.21341	0.13483	0.53461	0.80646	21.0	13111	100
2025-5-25 10:41:8.425	WT901BLE68(801231B9234C)	0.064	0.850	0.381	-4.272	-27.161	46.021	65.86	-2.49	150.03	12.642	-46.158	13.328	0.21341	0.13483	0.53461	0.80646	21.0	13111	100
2025-5-25 10:41:8.454	WT901BLE68(801231B9234C)	0.071	0.843	0.388	-0.854	-31.128	44.739	65.85	-3.57	149.82	12.642	-46.158	13.328	0.21341	0.13483	0.53461	0.80646	21.0	13111	100
2025-5-25 10:41:8.454	WT901BLE68(801231B9234C)	0.080	0.858	0.399	1.892	-33.630	42.297	65.90	-4.63	149.56	12.642	-46.158	13.328	0.21341	0.13483	0.53461	0.80646	21.0	13111	100
2025-5-25 10:41:8.484	WT901BLE68(801231B9234C)	0.094	0.862	0.416	1.770	-34.058	39.307	65.97	-5.63	149.27	12.642	-46.158	13.328	0.21341	0.13483	0.53461	0.80646	21.0	13111	100
2025-5-25 10:41:8.484	WT901BLE68(801231B9234C)	0.115	0.851	0.416	1.587	-33.569	35.156	66.04	-6.55	148.97	12.642	-46.158	13.328	0.21341	0.13483	0.53461	0.80646	21.0	13111	100
2025-5-25 10:41:8.545	WT901BLE68(801231B9234C)	0.126	0.848	0.415	-0.244	-29.358	30.396	66.08	-7.35	148.72	12.642	-46.158	13.328	0.21341	0.13483	0.53461	0.80646	21.0	13111	100
2025-5-25 10:41:8.545	WT901BLE68(801231B9234C)	0.138	0.835	0.415	-2.197	-22.095	24.231	66.07	-8.00	148.54	12.642	-46.158	13.328	0.21341	0.13483	0.53461	0.80646	21.0	13111	100
2025-5-25 10:41:8.574	WT901BLE68(801231B9234C)	0.146	0.834	0.411	-4.150	-12.878	17.151	66.01	-8.46	148.47	6.272	-47.628	3.136	0.21341	0.13483	0.53461	0.80646	21.0	13111	100
2025-5-25 10:41:8.574	WT901BLE68(801231B9234C)	0.143	0.820	0.400	-5.737	-3.906	10.132	65.89	-8.72	148.52	6.272	-47.628	3.136	0.21341	0.13483	0.53461	0.80646	21.0	13111	100
2025-5-25 10:41:8.604	WT901BLE68(801231B9234C)	0.128	0.816	0.385	-6.592	3.479	2.930	65.73	-8.79	148.66	6.272	-47.628	3.136	0.21341	0.13483	0.53461	0.80646	21.0	13111	100
2025-5-25 10:41:8.604	WT901BLE68(801231B9234C)	0.127	0.812	0.397	-7.690	7.385	-2.747	65.54	-8.71	148.85	6.272	-47.628	3.136	0.21341	0.13483	0.53461	0.80646	21.0	13111	100
2025-5-25 10:41:8.665	WT901BLE68(801231B9234C)	0.139	0.806	0.395	-6.775	8.057	-7.568	65.37	-8.51	149.03	6.272	-47.628	3.136	0.21341	0.13483	0.53461	0.80646	21.0	13111	100
2025-5-25 10:41:8.665	WT901BLE68(801231B9234C)	0.155	0.788	0.383	-5.615	8.606	-11.108	65.22	-8.25	149.17	6.272	-47.628	3.136	0.21341	0.13483	0.53461	0.80646	21.0	13111	100
2025-5-25 10:41:8.698	WT901BLE68(801231B9234C)	0.158	0.787	0.382	-3.784	11.597	-14.709	65.10	-7.92	149.32	6.272	-47.628	3.136	0.21341	0.13483	0.53461	0.80646	21.0	13111	100
2025-5-25 10:41:8.698	WT901BLE68(801231B9234C)	0.156	0.792	0.382	-2.319	15.625	-17.822	65.01	-7.49	149.50	6.272	-47.628	3.136	0.21341	0.13483	0.53461	0.80646	21.0	13111	100
2025-5-25 10:41:8.755	WT901BLE68(801231B9234C)	0.151	0.780	0.380	0.000	18.982	-20.081	64.96	-7.00	149.71	6.272	-47.628	3.136	0.21341	0.13483	0.53461	0.80646	21.0	13111	100
2025-5-25 10:41:8.755	WT901BLE68(801231B9234C)	0.135	0.771	0.393	2.869	20.813	-22.217	64.95	-6.47	149.94	6.272	-47.628	3.136	0.21341	0.13483	0.53461	0.80646	21.0	13111	100
2025-5-25 10:41:8.785	WT901BLE68(801231B9234C)	0.133	0.782	0.393	6.592	20.874	-23.804	65.01	-5.89	150.16	6.272	-47.628	3.136	0.21341	0.13483	0.53461	0.80646	21.0	13111	100
2025-5-25 10:41:8.785	WT901BLE68(801231B9234C)	0.124	0.787	0.391	9.460	20.691	-24.475	65.14	-5.32	150.35	6.272	-47.628	3.136	0.21341	0.13483	0.53461	0.80646	21.0	13111	100
2025-5-25 10:41:8.817	WT901BLE68(801231B9234C)	0.104	0.785	0.404	11.963	20.630	-25.330	65.31	-4.74	150.54	6.272	-47.628	3.136	0.18884	0.17554	0.51523	0.81729	21.0	13111	100
2025-5-25 10:41:8.817	WT901BLE68(801231B9234C)	0.098	0.812	0.408	15.198	20.264	-26.855	65.56	-4.13	150.71	6.272	-47.628	3.136	0.18884	0.17554	0.51523	0.81729	21.0	13111	100
2025-5-25 10:41:8.846	WT901BLE68(801231B9234C)	0.100	0.834	0.408	17.334	20.447	-27.588	65.85	-3.52	150.86	6.272	-47.628	3.136	0.18884	0.17554	0.51523	0.81729	21.0	13111	100
2025-5-25 10:41:8.846	WT901BLE68(801231B9234C)	0.085	0.858	0.397	18.860	22.583	-29.053	66.17	-2.87	151.04	6.272	-47.628	3.136	0.18884	0.17554	0.51523	0.81729	21.0	13111	100
2025-5-25 10:41:8.936	WT901BLE68(801231B9234C)	0.073	0.885	0.396	19.531	26.001	-30.090	66.51	-2.19	151.25	6.272	-47.628	3.136	0.18884	0.17554	0.51523	0.81729	21.0	13111	100
2025-5-25 10:41:8.936	WT901BLE68(801231B9234C)	0.064	0.904	0.401	19.836	28.625	-30.945	66.86	-1.47	151.52	6.272	-47.628	3.136	0.18884	0.17554	0.51523	0.81729	21.0	13111	100
2025-5-25 10:41:8.937	WT901BLE68(801231B9234C)	0.056	0.913	0.397	19.531	30.334	-30.823	67.21	-0.73	151.82	6.272	-47.628	3.136	0.18884	0.17554	0.51523	0.81729	21.0	13111	100
2025-5-25 10:41:8.937	WT901BLE68(801231B9234C)	0.055	0.911	0.385	18.555	33.142	-31.372	67.54	0.03	152.17	6.272	-47.628	3.136	0.18884	0.17554	0.51523	0.81729	21.0	13111	100
2025-5-25 10:41:8.998	WT901BLE68(801231B9234C)	0.051	0.927	0.377	17.517	36.926	-32.471	67.87	0.82	152.56	6.272	-47.628	3.136	0.18884	0.17554	0.51523	0.81729	21.0	13111	100
2025-5-25 10:41:8.998	WT901BLE68(801231B9234C)	0.041	0.955	0.367	15.625	41.931	-33.447	68.17	1.66	153.02	10.486	-47.334	5.194	0.18884	0.17554	0.51523	0.81729	21.0	13111	100
2025-5-25 10:41:9.24	WT901BLE68(801231B9234C)	0.032	0.964	0.350	13.367	49.133	-33.630	68.44	2.55	153.59	10.486	-47.334	5.194	0.18884	0.17554	0.51523	0.81729	21.0	13111	100
2025-5-25 10:41:9.24	WT901BLE68(801231B9234C)	0.011	0.957	0.340	11.353	56.702	-32.410	68.70	3.48	154.30	10.486	-47.334	5.194	0.18884	0.17554	0.51523	0.81729	21.0	13111	100
2025-5-25 10:41:9.84	WT901BLE68(801231B9234C)	-0.008	0.953	0.320	10.986	62.622	-31.677	68.94	4.42	155.14	10.486	-47.334	5.194	0.18884	0.17554	0.51523	0.81729	21.0	13111	100
2025-5-25 10:41:9.85	WT901BLE68(801231B9234C)	-0.024	0.975	0.314	10.864	66.895	-29.541	69.22	5.36	156.07	10.486	-47.334	5.194	0.18884	0.17554	0.51523	0.81729	21.0	13111	100
2025-5-25 10:41:9.116	WT901BLE68(801231B9234C)	-0.045	0.944	0.305	10.559	70.374	-25.574	69.53	6.25	157.08	10.486	-47.334	5.194	0.18884	0.17554	0.51523	0.81729	21.0	13111	100
2025-5-25 10:41:9.116	WT901BLE68(801231B9234C)	-0.061	0.919	0.281	12.329	73.547	-23.499	69.87	7.10	158.16	10.486	-47.334	5.194	0.18884	0.17554	0.51523	0.81729	21.0	13111	100
2025-5-25 10:41:9.146	WT901BLE68(801231B9234C)	-0.083	0.919	0.263	13.855	76.904	-22.217	70.29	7.94	159.33	10.486	-47.334	5.194	0.18884	0.17554	0.51523	0.81729	21.0	13111	100
2025-5-25 10:41:9.146	WT901BLE68(801231B9234C)	-0.112	0.910	0.263	14.954	78.247	-21.667	70.75	8.77	160.54	10.486	-47.334	5.194	0.17468	0.03250	0.58606	0.79047	21.0	13111	100
2025-5-25 10:41:9.176	WT901BLE68(801231B9234C)	-0.126	0.912	0.259	16.785	75.806	-22.461	71.26	9.59	161.74	10.486	-47.334	5.194	0.17468	0.03250	0.58606	0.79047	21.0	13111	100
2025-5-25 10:41:9.176	WT901BLE68(801231B9234C)	-0.135	0.905	0.246	19.043	71.289	-23.438	71.82	10.38	162.87	10.486	-47.334	5.194	0.17468	0.03250	0.58606	0.79047	21.0	13111	100
2025-5-25 10:41:9.236	WT901BLE68(801231B9234C)	-0.145	0.915	0.231	21.179	66.833	-24.414	72.43	11.17	163.92	10.486	-47.334	5.194	0.17468	0.03250	0.58606	0.79047	21.0	13111	100
2025-5-25 10:41:9.236	WT901BLE68(801231B9234C)	-0.157	0.918	0.219	22.766	61.035	-23.132	73.07	11.90	164.88	10.486	-47.334	5.194	0.17468	0.03250	0.58606	0.79047	21.0	13111	100
2025-5-25 10:41:9.264	WT901BLE68(801231B9234C)	-0.174	0.921	0.203	23.926	55.542	-18.799	73.73	12.54	165.75	10.486	-47.334	5.194	0.17468	0.03250	0.58606	0.79047	21.0	13111	100
2025-5-25 10:41:9.264	WT901BLE68(801231B9234C)	-0.188	0.898	0.194	25.208	49.683	-14.221	74.42	13.05	166.56	10.486	-47.334	5.194	0.17468	0.03250	0.58606	0.79047	21.0	13111	100
2025-5-25 10:41:9.326	WT901BLE68(801231B9234C)	-0.199	0.908	0.188	26.123	43.762	-8.850	75.11	13.41	167.28	10.486	-47.334	5.194	0.17468	0.03250	0.58606	0.79047	21.0	13111	100
2025-5-25 10:41:9.327	WT901BLE68(801231B9234C)	-0.202	0.908	0.176	25.940	37.842	-3.845	75.80	13.66	167.93	10.486	-47.334	5.194	0.17468	0.03250	0.58606	0.79047	21.0	13111	100
2025-5-25 10:41:9.414	WT901BLE68(801231B9234C)	-0.208	0.929	0.161	25.818	32.288	1.038	76.46	13.77	168.50	10.486	-47.334	5.194	0.17468	0.03250	0.58606	0.79047	21.0	13111	100
2025-5-25 10:41:9.414	WT901BLE68(801231B9234C)	-0.206	0.952	0.142	24.841	29.663	6.348	77.11	13.77	169.01	10.486	-47.334	5.194	0.17468	0.03250	0.58606	0.79047	21.0	13111	100
2025-5-25 10:41:9.414	WT901BLE68(801231B9234C)	-0.203	0.945	0.116	24.170	30.701	11.353	77.74	13.67	169.56	15.484	-44.884	15.778	0.17468	0.03250	0.58606	0.79047	21.0	13111	100
2025-5-25 10:41:9.414	WT901BLE68(801231B9234C)	-0.203	0.908	0.079	23.682	36.194	15.137	78.38	13.50	170.19	15.484	-44.884	15.778	0.17468	0.03250	0.58606	0.79047	21.0	13111	100
2025-5-25 10:41:9.444	WT901BLE68(801231B9234C)	-0.212	0.869	0.053	24.841	44.250	17.273	79.07	13.30	171.00	15.484	-44.884	15.778	0.17468	0.03250	0.58606	0.79047	21.0	13111	100
2025-5-25 10:41:9.444	WT901BLE68(801231B9234C)	-0.228	0.853	0.033	26.489	48.950	19.165	79.83	13.09	171.94	15.484	-44.884	15.778	0.17468	0.03250	0.58606	0.79047	21.0	13111	100
2025-5-25 10:41:9.474	WT901BLE68(801231B9234C)	-0.241	0.858	0.052	29.297	45.288	23.682	80.63	12.79	172.88	15.484	-44.884	15.778	0.17468	0.03250	0.58606	0.79047	21.0	13111	100
2025-5-25 10:41:9.474	WT901BLE68(801231B9234C)	-0.302	0.928	0.091	32.227	46.204	24.719	81.47	12.45	173.79	15.484	-44.884	15.778	0.17468	0.03250	0.58606	0.79047	21.0	13111	100
2025-5-25 10:41:9.504	WT901BLE68(801231B9234C)	-0.334	0.994	0.089	29.175	42.847	26.978	82.30	12.06	174.74	15.484	-44.884	15.778	0.17468	0.03250	0.58606	0.79047	21.0	13111	100
2025-5-25 10:41:9.504	WT901BLE68(801231B9234C)	-0.308	1.004	0.060	26.855	30.090	28.442	83.01	11.62	175.48	15.484	-44.884	15.778	0.17468	0.03250	0.58606	0.79047	21.0	13111	100
2025-5-25 10:41:9.536	WT901BLE68(801231B9234C)	-0.293	1.019	0.032	24.231	16.357	31.006	83.62	11.11	175.99	15.484	-44.884	15.778	0.17468	0.03250	0.58606	0.79047	21.0	13111	100
2025-5-25 10:41:9.537	WT901BLE68(801231B9234C)	-0.279	1.053	0.023	21.484	6.531	28.442	84.12	10.60	176.28	15.484	-44.884	15.778	0.17468	0.03250	0.58606	0.79047	21.0	13111	100
2025-5-25 10:41:9.598	WT901BLE68(801231B9234C)	-0.257	1.084	0.016	19.043	3.540	25.024	84.55	10.14	176.46	15.484	-44.884	15.778	0.07666	-0.03946	0.67725	0.73062	21.0	13111	100
2025-5-25 10:41:9.598	WT901BLE68(801231B9234C)	-0.262	1.087	0.002	17.639	6.470	20.325	84.95	9.77	176.65	15.484	-44.884	15.778	0.07666	-0.03946	0.67725	0.73062	21.0	13111	100
2025-5-25 10:41:9.624	WT901BLE68(801231B9234C)	-0.264	1.095	0.000	16.785	10.376	14.954	85.33	9.52	176.92	15.484	-44.884	15.778	0.07666	-0.03946	0.67725	0.73062	21.0	13111	100
2025-5-25 10:41:9.625	WT901BLE68(801231B9234C)	-0.268	1.109	0.005	16.968	12.207	11.414	85.73	9.35	177.24	15.484	-44.884	15.778	0.07666	-0.03946	0.67725	0.73062	21.0	13111	100
2025-5-25 10:41:9.653	WT901BLE68(801231B9234C)	-0.281	1.105	0.013	16.602	12.207	8.301	86.12	9.24	177.57	15.484	-44.884	15.778	0.07666	-0.03946	0.67725	0.73062	21.0	13111	100
2025-5-25 10:41:9.654	WT901BLE68(801231B9234C)	-0.275	1.122	0.018	15.869	8.667	5.005	86.49	9.20	177.86	15.484	-44.884	15.778	0.07666	-0.03946	0.67725	0.73062	21.0	13111	100
2025-5-25 10:41:9.714	WT901BLE68(801231B9234C)	-0.255	1.109	0.015	14.404	6.897	2.686	86.82	9.20	178.09	15.484	-44.884	15.778	0.07666	-0.03946	0.67725	0.73062	21.0	13111	100
2025-5-25 10:41:9.714	WT901BLE68(801231B9234C)	-0.245	1.077	0.021	12.817	7.690	-0.549	87.12	9.25	178.32	15.484	-44.884	15.778	0.07666	-0.03946	0.67725	0.73062	21.0	13111	100
2025-5-25 10:41:9.744	WT901BLE68(801231B9234C)	-0.235	1.087	0.024	10.437	8.850	-4.700	87.38	9.38	178.57	15.484	-44.884	15.778	0.07666	-0.03946	0.67725	0.73062	21.0	13111	100
2025-5-25 10:41:9.744	WT901BLE68(801231B9234C)	-0.226	1.112	0.024	7.507	12.085	-7.935	87.59	9.58	178.85	15.484	-44.884	15.778	0.07666	-0.03946	0.67725	0.73062	21.0	13111	100
2025-5-25 10:41:9.774	WT901BLE68(801231B9234C)	-0.220	1.108	0.018	4.395	17.029	-10.559	87.75	9.83	179.21	15.484	-44.884	15.778	0.07666	-0.03946	0.67725	0.73062	21.0	13111	100
2025-5-25 10:41:9.775	WT901BLE68(801231B9234C)	-0.218	1.073	0.021	2.319	21.606	-13.306	87.88	10.13	179.66	8.036	-43.022	24.402	0.07666	-0.03946	0.67725	0.73062	21.0	13111	100
2025-5-25 10:41:9.835	WT901BLE68(801231B9234C)	-0.215	1.049	0.023	0.610	24.841	-17.212	87.98	10.49	-179.82	8.036	-43.022	24.402	0.07666	-0.03946	0.67725	0.73062	21.0	13111	100
2025-5-25 10:41:9.835	WT901BLE68(801231B9234C)	-0.215	1.024	0.020	-0.488	26.550	-20.203	88.08	10.91	-179.27	8.036	-43.022	24.402	0.07666	-0.03946	0.67725	0.73062	21.0	13111	100
2025-5-25 10:41:9.863	WT901BLE68(801231B9234C)	-0.219	0.985	0.021	-0.854	26.733	-22.522	88.17	11.39	-178.72	8.036	-43.022	24.402	0.07666	-0.03946	0.67725	0.73062	21.0	13111	100
2025-5-25 10:41:9.863	WT901BLE68(801231B9234C)	-0.221	0.954	0.025	-0.244	23.682	-23.926	88.25	11.88	-178.21	8.036	-43.022	24.402	0.07666	-0.03946	0.67725	0.73062	21.0	13111	100
2025-5-25 10:41:9.897	WT901BLE68(801231B9234C)	-0.223	0.924	0.028	0.549	17.883	-23.865	88.34	12.38	-177.80	8.036	-43.022	24.402	0.07666	-0.03946	0.67725	0.73062	21.0	13111	100
2025-5-25 10:41:9.897	WT901BLE68(801231B9234C)	-0.223	0.915	0.040	1.831	9.827	-21.912	88.41	12.85	-177.55	8.036	-43.022	24.402	0.07666	-0.03946	0.67725	0.73062	21.0	13111	100
2025-5-25 10:41:9.954	WT901BLE68(801231B9234C)	-0.213	0.921	0.037	3.845	1.465	-17.212	88.49	13.24	-177.47	8.036	-43.022	24.402	0.07666	-0.03946	0.67725	0.73062	21.0	13111	100
2025-5-25 10:41:9.955	WT901BLE68(801231B9234C)	-0.207	0.929	0.043	5.249	-5.737	-10.376	88.56	13.50	-177.55	8.036	-43.022	24.402	0.07666	-0.03946	0.67725	0.73062	21.0	13111	100
2025-5-25 10:41:9.986	WT901BLE68(801231B9234C)	-0.195	0.950	0.047	6.592	-11.841	-2.075	88.62	13.60	-177.76	8.036	-43.022	24.402	0.06589	-0.09445	0.69562	0.70905	21.0	13111	100
2025-5-25 10:41:9.986	WT901BLE68(801231B9234C)	-0.199	0.960	0.044	7.141	-14.404	6.958	88.69	13.52	-178.06	8.036	-43.022	24.402	0.06589	-0.09445	0.69562	0.70905	21.0	13111	100
2025-5-25 10:41:10.17	WT901BLE68(801231B9234C)	-0.207	0.987	0.064	7.324	-15.381	16.174	88.75	13.26	-178.39	8.036	-43.022	24.402	0.06589	-0.09445	0.69562	0.70905	21.0	13111	100
2025-5-25 10:41:10.18	WT901BLE68(801231B9234C)	-0.194	1.039	0.075	5.493	-18.494	24.353	88.78	12.83	-178.76	8.036	-43.022	24.402	0.06589	-0.09445	0.69562	0.70905	21.0	13111	100
2025-5-25 10:41:10.74	WT901BLE68(801231B9234C)	-0.183	1.075	0.080	1.892	-20.935	30.090	88.73	12.26	-179.20	8.036	-43.022	24.402	0.06589	-0.09445	0.69562	0.70905	21.0	13111	100
2025-5-25 10:41:10.74	WT901BLE68(801231B9234C)	-0.166	1.076	0.075	-2.808	-18.738	33.142	88.60	11.62	-179.62	8.036	-43.022	24.402	0.06589	-0.09445	0.69562	0.70905	21.0	13111	100
2025-5-25 10:41:10.104	WT901BLE68(801231B9234C)	-0.159	1.071	0.074	-7.141	-12.451	34.180	88.41	10.94	-179.95	8.036	-43.022	24.402	0.06589	-0.09445	0.69562	0.70905	21.0	13111	100
2025-5-25 10:41:10.104	WT901BLE68(801231B9234C)	-0.162	1.055	0.071	-11.475	-4.150	31.799	88.16	10.28	179.88	8.036	-43.022	24.402	0.06589	-0.09445	0.69562	0.70905	21.0	13111	100
2025-5-25 10:41:10.137	WT901BLE68(801231B9234C)	-0.173	1.034	0.063	-14.404	4.089	27.771	87.87	9.71	179.89	8.036	-43.022	24.402	0.06589	-0.09445	0.69562	0.70905	21.0	13111	100
2025-5-25 10:41:10.137	WT901BLE68(801231B9234C)	-0.201	1.011	0.063	-16.235	9.644	23.682	87.57	9.23	-179.95	8.036	-43.022	24.402	0.06589	-0.09445	0.69562	0.70905	21.0	13111	100
2025-5-25 10:41:10.197	WT901BLE68(801231B9234C)	-0.221	1.045	0.071	-17.151	7.507	19.714	87.25	8.83	-179.77	7.546	-42.826	24.990	0.06589	-0.09445	0.69562	0.70905	21.0	13111	100
2025-5-25 10:41:10.197	WT901BLE68(801231B9234C)	-0.206	1.068	0.064	-18.372	-0.061	18.921	86.89	8.49	-179.70	7.546	-42.826	24.990	0.06589	-0.09445	0.69562	0.70905	21.0	13111	100
2025-5-25 10:41:10.224	WT901BLE68(801231B9234C)	-0.196	1.044	0.055	-19.043	-9.155	18.555	86.48	8.14	-179.79	7.546	-42.826	24.990	0.06589	-0.09445	0.69562	0.70905	21.0	13111	100
2025-5-25 10:41:10.224	WT901BLE68(801231B9234C)	-0.193	1.050	0.061	-19.653	-16.724	17.395	86.06	7.81	179.97	7.546	-42.826	24.990	0.06589	-0.09445	0.69562	0.70905	21.0	13111	100
2025-5-25 10:41:10.255	WT901BLE68(801231B9234C)	-0.180	1.067	0.048	-19.470	-22.888	15.991	85.62	7.49	179.62	7.546	-42.826	24.990	0.06589	-0.09445	0.69562	0.70905	21.0	13111	100
2025-5-25 10:41:10.255	WT901BLE68(801231B9234C)	-0.179	1.074	0.042	-19.226	-26.123	14.771	85.19	7.20	179.18	7.546	-42.826	24.990	0.06589	-0.09445	0.69562	0.70905	21.0	13111	100
2025-5-25 10:41:10.314	WT901BLE68(801231B9234C)	-0.184	1.085	0.043	-18.799	-28.870	13.489	84.77	6.93	178.70	7.546	-42.826	24.990	0.06589	-0.09445	0.69562	0.70905	21.0	13111	100
2025-5-25 10:41:10.314	WT901BLE68(801231B9234C)	-0.175	1.095	0.046	-18.677	-32.593	12.878	84.35	6.66	178.16	7.546	-42.826	24.990	0.06589	-0.09445	0.69562	0.70905	21.0	13111	100
2025-5-25 10:41:10.346	WT901BLE68(801231B9234C)	-0.162	1.086	0.052	-18.799	-37.354	11.108	83.93	6.41	177.54	7.546	-42.826	24.990	0.06589	-0.09445	0.69562	0.70905	21.0	13111	100
2025-5-25 10:41:10.346	WT901BLE68(801231B9234C)	-0.147	1.059	0.052	-19.287	-40.405	7.751	83.50	6.20	176.85	7.546	-42.826	24.990	0.06589	-0.09445	0.69562	0.70905	21.0	13111	100
2025-5-25 10:41:10.377	WT901BLE68(801231B9234C)	-0.127	1.027	0.050	-20.325	-40.588	3.906	83.06	6.05	176.13	7.546	-42.826	24.990	0.06589	-0.09445	0.69562	0.70905	21.0	13111	100
2025-5-25 10:41:10.377	WT901BLE68(801231B9234C)	-0.117	1.006	0.050	-21.423	-37.598	0.244	82.61	5.98	175.44	7.546	-42.826	24.990	0.06113	-0.00897	0.66370	0.74536	21.0	13111	100
2025-5-25 10:41:10.434	WT901BLE68(801231B9234C)	-0.113	0.991	0.048	-21.912	-30.884	-2.136	82.16	5.97	174.84	7.546	-42.826	24.990	0.06113	-0.00897	0.66370	0.74536	21.0	13111	100
2025-5-25 10:41:10.435	WT901BLE68(801231B9234C)	-0.125	1.011	0.047	-21.667	-21.301	-1.953	81.73	5.99	174.41	7.546	-42.826	24.990	0.06113	-0.00897	0.66370	0.74536	21.0	13111	100
2025-5-25 10:41:10.463	WT901BLE68(801231B9234C)	-0.158	1.002	0.062	-21.179	-13.489	-1.160	81.34	6.01	174.15	7.546	-42.826	24.990	0.06113	-0.00897	0.66370	0.74536	21.0	13111	100
2025-5-25 10:41:10.463	WT901BLE68(801231B9234C)	-0.167	0.976	0.079	-19.958	-14.954	-1.465	80.96	6.03	173.94	7.546	-42.826	24.990	0.06113	-0.00897	0.66370	0.74536	21.0	13111	100
2025-5-25 10:41:10.525	WT901BLE68(801231B9234C)	-0.165	0.974	0.088	-18.127	-21.484	-0.671	80.61	6.03	173.63	7.546	-42.826	24.990	0.06113	-0.00897	0.66370	0.74536	21.0	13111	100
2025-5-25 10:41:10.525	WT901BLE68(801231B9234C)	-0.158	0.980	0.095	-15.747	-28.625	0.244	80.29	5.99	173.18	7.546	-42.826	24.990	0.06113	-0.00897	0.66370	0.74536	21.0	13111	100
2025-5-25 10:41:10.554	WT901BLE68(801231B9234C)	-0.154	0.963	0.101	-13.245	-35.095	0.000	80.01	5.93	172.61	7.546	-42.826	24.990	0.06113	-0.00897	0.66370	0.74536	21.0	13111	100
2025-5-25 10:41:10.554	WT901BLE68(801231B9234C)	-0.153	0.965	0.110	-11.169	-38.818	-1.343	79.77	5.86	171.95	7.546	-42.826	24.990	0.06113	-0.00897	0.66370	0.74536	21.0	13111	100
2025-5-25 10:41:10.584	WT901BLE68(801231B9234C)	-0.148	0.965	0.120	-9.949	-42.847	-4.395	79.54	5.83	171.21	7.546	-42.826	24.990	0.06113	-0.00897	0.66370	0.74536	21.0	13111	100
2025-5-25 10:41:10.585	WT901BLE68(801231B9234C)	-0.124	0.964	0.154	-10.376	-47.180	-9.949	79.31	5.87	170.37	7.546	-45.374	18.424	0.06113	-0.00897	0.66370	0.74536	21.0	13111	100
2025-5-25 10:41:10.645	WT901BLE68(801231B9234C)	-0.118	0.992	0.209	-15.259	-50.842	-16.907	79.01	6.01	169.43	7.546	-45.374	18.424	0.06113	-0.00897	0.66370	0.74536	21.0	13111	100
2025-5-25 10:41:10.645	WT901BLE68(801231B9234C)	-0.122	1.024	0.261	-26.245	-51.147	-24.353	78.51	6.28	168.41	7.546	-45.374	18.424	0.06113	-0.00897	0.66370	0.74536	21.0	13111	100
2025-5-25 10:41:10.674	WT901BLE68(801231B9234C)	-0.004	1.015	0.240	-38.025	-40.833	-23.438	77.76	6.61	167.49	7.546	-45.374	18.424	0.06113	-0.00897	0.66370	0.74536	21.0	13111	100
2025-5-25 10:41:10.674	WT901BLE68(801231B9234C)	0.055	0.917	0.208	-40.405	-15.320	-12.695	76.90	6.87	166.97	7.546	-45.374	18.424	0.06113	-0.00897	0.66370	0.74536	21.0	13111	100
2025-5-25 10:41:10.704	WT901BLE68(801231B9234C)	0.024	0.860	0.206	-40.039	8.118	-10.864	76.10	7.10	166.94	7.546	-45.374	18.424	0.06113	-0.00897	0.66370	0.74536	21.0	13111	100
2025-5-25 10:41:10.704	WT901BLE68(801231B9234C)	-0.069	0.818	0.257	-32.654	25.879	-14.099	75.45	7.43	167.25	7.546	-45.374	18.424	0.06113	-0.00897	0.66370	0.74536	21.0	13111	100
2025-5-25 10:41:10.764	WT901BLE68(801231B9234C)	-0.166	0.805	0.320	-28.015	20.020	-21.362	74.93	7.88	167.60	7.546	-45.374	18.424	0.06113	-0.00897	0.66370	0.74536	21.0	13111	100
2025-5-25 10:41:10.765	WT901BLE68(801231B9234C)	-0.182	0.813	0.364	-17.151	4.395	-32.715	74.54	8.46	167.64	7.546	-45.374	18.424	0.06113	-0.00897	0.66370	0.74536	21.0	13111	100
2025-5-25 10:41:10.797	WT901BLE68(801231B9234C)	-0.177	0.860	0.371	-8.850	-26.306	-38.086	74.22	9.05	167.16	7.546	-45.374	18.424	0.13556	0.00940	0.60770	0.78238	21.0	13111	100
2025-5-25 10:41:10.797	WT901BLE68(801231B9234C)	-0.129	0.905	0.347	-3.235	-60.547	-40.771	73.92	9.54	166.00	7.546	-45.374	18.424	0.13556	0.00940	0.60770	0.78238	21.0	13111	100
2025-5-25 10:41:10.827	WT901BLE68(801231B9234C)	-0.085	0.899	0.316	0.061	-84.045	-41.565	73.60	9.90	164.30	7.546	-45.374	18.424	0.13556	0.00940	0.60770	0.78238	21.0	13111	100
2025-5-25 10:41:10.827	WT901BLE68(801231B9234C)	-0.070	0.904	0.296	-0.244	-92.163	-44.189	73.26	10.20	162.33	7.546	-45.374	18.424	0.13556	0.00940	0.60770	0.78238	21.0	13111	100
2025-5-25 10:41:10.885	WT901BLE68(801231B9234C)	-0.060	0.901	0.274	-3.296	-86.792	-45.410	72.86	10.52	160.34	7.546	-45.374	18.424	0.13556	0.00940	0.60770	0.78238	21.0	13111	100
2025-5-25 10:41:10.885	WT901BLE68(801231B9234C)	-0.028	0.886	0.260	-6.226	-72.388	-47.546	72.43	10.92	158.55	7.546	-45.374	18.424	0.13556	0.00940	0.60770	0.78238	21.0	13111	100
2025-5-25 10:41:10.914	WT901BLE68(801231B9234C)	-0.039	0.912	0.245	-11.292	-54.749	-43.518	71.98	11.36	157.07	7.546	-45.374	18.424	0.13556	0.00940	0.60770	0.78238	21.0	13111	100
2025-5-25 10:41:10.914	WT901BLE68(801231B9234C)	-0.073	0.886	0.242	-17.029	-31.189	-39.124	71.49	11.82	156.01	7.546	-45.374	18.424	0.13556	0.00940	0.60770	0.78238	21.0	13111	100
2025-5-25 10:41:10.946	WT901BLE68(801231B9234C)	-0.093	0.847	0.243	-21.240	-14.099	-34.729	70.99	12.30	155.35	7.546	-45.374	18.424	0.13556	0.00940	0.60770	0.78238	21.0	13111	100
2025-5-25 10:41:10.946	WT901BLE68(801231B9234C)	-0.110	0.838	0.239	-23.560	-2.014	-29.968	70.49	12.77	154.95	7.546	-45.374	18.424	0.13556	0.00940	0.60770	0.78238	21.0	13111	100
2025-5-25 10:41:11.4	WT901BLE68(801231B9234C)	-0.115	0.847	0.235	-24.597	6.104	-25.818	70.01	13.22	154.75	18.620	-45.276	10.290	0.13556	0.00940	0.60770	0.78238	21.0	13111	100
2025-5-25 10:41:11.4	WT901BLE68(801231B9234C)	-0.120	0.852	0.233	-24.536	12.268	-21.423	69.57	13.62	154.69	18.620	-45.276	10.290	0.13556	0.00940	0.60770	0.78238	21.0	13111	100
2025-5-25 10:41:11.35	WT901BLE68(801231B9234C)	-0.132	0.864	0.227	-23.376	18.066	-18.005	69.17	14.00	154.76	18.620	-45.276	10.290	0.13556	0.00940	0.60770	0.78238	21.0	13111	100
2025-5-25 10:41:11.35	WT901BLE68(801231B9234C)	-0.147	0.868	0.219	-21.057	22.827	-14.404	68.85	14.35	154.95	18.620	-45.276	10.290	0.13556	0.00940	0.60770	0.78238	21.0	13111	100
2025-5-25 10:41:11.64	WT901BLE68(801231B9234C)	-0.156	0.859	0.210	-17.822	25.452	-10.803	68.61	14.66	155.21	18.620	-45.276	10.290	0.13556	0.00940	0.60770	0.78238	21.0	13111	100
2025-5-25 10:41:11.64	WT901BLE68(801231B9234C)	-0.170	0.849	0.201	-12.207	26.978	-6.104	68.49	14.91	155.53	18.620	-45.276	10.290	0.13556	0.00940	0.60770	0.78238	21.0	13111	100
2025-5-25 10:41:11.125	WT901BLE68(801231B9234C)	-0.190	0.839	0.200	-5.676	27.832	0.183	68.53	15.06	155.91	18.620	-45.276	10.290	0.13556	0.00940	0.60770	0.78238	21.0	13111	100
2025-5-25 10:41:11.125	WT901BLE68(801231B9234C)	-0.193	0.835	0.220	-1.038	26.123	7.080	68.68	15.09	156.33	18.620	-45.276	10.290	0.13556	0.00940	0.60770	0.78238	21.0	13111	100
2025-5-25 10:41:11.156	WT901BLE68(801231B9234C)	-0.183	0.832	0.232	2.869	18.555	13.184	68.91	14.96	156.70	18.620	-45.276	10.290	0.13556	0.00940	0.60770	0.78238	21.0	13111	100
2025-5-25 10:41:11.156	WT901BLE68(801231B9234C)	-0.170	0.856	0.218	5.310	11.902	20.203	69.16	14.67	156.97	18.620	-45.276	10.290	0.13556	0.00940	0.60770	0.78238	21.0	13111	100
2025-5-25 10:41:11.215	WT901BLE68(801231B9234C)	-0.161	0.866	0.190	7.813	12.939	29.663	69.46	14.22	157.27	18.620	-45.276	10.290	0.13556	0.00940	0.60770	0.78238	21.0	13111	100
2025-5-25 10:41:11.215	WT901BLE68(801231B9234C)	-0.170	0.868	0.181	11.780	20.935	39.917	69.86	13.61	157.74	18.620	-45.276	10.290	0.22101	0.01938	0.57980	0.78391	21.0	13111	100
2025-5-25 10:41:11.243	WT901BLE68(801231B9234C)	-0.196	0.875	0.176	18.555	30.273	48.950	70.43	12.90	158.45	18.620	-45.276	10.290	0.22101	0.01938	0.57980	0.78391	21.0	13111	100
2025-5-25 10:41:11.244	WT901BLE68(801231B9234C)	-0.234	0.897	0.184	25.879	36.072	57.678	71.16	12.07	159.35	18.620	-45.276	10.290	0.22101	0.01938	0.57980	0.78391	21.0	13111	100
2025-5-25 10:41:11.274	WT901BLE68(801231B9234C)	-0.270	0.938	0.204	31.921	34.851	65.430	72.03	11.09	160.34	18.620	-45.276	10.290	0.22101	0.01938	0.57980	0.78391	21.0	13111	100
2025-5-25 10:41:11.275	WT901BLE68(801231B9234C)	-0.271	0.967	0.240	34.668	25.330	71.472	72.92	9.95	161.26	18.620	-45.276	10.290	0.22101	0.01938	0.57980	0.78391	21.0	13111	100
2025-5-25 10:41:11.303	WT901BLE68(801231B9234C)	-0.247	0.978	0.280	34.607	9.766	75.256	73.74	8.67	161.94	18.620	-45.276	10.290	0.22101	0.01938	0.57980	0.78391	21.0	13111	100
2025-5-25 10:41:11.303	WT901BLE68(801231B9234C)	-0.211	0.985	0.300	31.738	3.662	72.266	74.47	7.35	162.47	18.620	-45.276	10.290	0.22101	0.01938	0.57980	0.78391	21.0	13111	100
2025-5-25 10:41:11.398	WT901BLE68(801231B9234C)	-0.193	0.999	0.341	26.306	9.094	66.711	75.10	6.12	162.99	18.620	-45.276	10.290	0.22101	0.01938	0.57980	0.78391	21.0	13111	100
2025-5-25 10:41:11.398	WT901BLE68(801231B9234C)	-0.165	1.009	0.346	18.372	18.494	61.279	75.55	5.07	163.65	18.620	-45.276	10.290	0.22101	0.01938	0.57980	0.78391	21.0	13111	100
2025-5-25 10:41:11.398	WT901BLE68(801231B9234C)	-0.125	0.925	0.362	5.981	35.583	59.448	75.79	4.11	164.59	18.620	-45.276	10.290	0.22101	0.01938	0.57980	0.78391	21.0	13111	100
2025-5-25 10:41:11.399	WT901BLE68(801231B9234C)	-0.155	0.837	0.342	2.991	56.885	42.236	75.86	3.47	165.86	18.620	-45.276	10.290	0.22101	0.01938	0.57980	0.78391	21.0	13111	100
2025-5-25 10:41:11.425	WT901BLE68(801231B9234C)	-0.271	0.866	0.303	2.197	77.637	24.353	75.93	3.30	167.48	18.620	-45.276	10.290	0.22101	0.01938	0.57980	0.78391	21.0	13111	100
2025-5-25 10:41:11.425	WT901BLE68(801231B9234C)	-0.387	0.917	0.363	0.610	75.012	9.155	75.95	3.48	169.16	9.016	-46.648	13.524	0.22101	0.01938	0.57980	0.78391	21.0	13111	100
2025-5-25 10:41:11.485	WT901BLE68(801231B9234C)	-0.437	0.975	0.415	6.714	47.974	-5.859	76.03	3.86	170.45	9.016	-46.648	13.524	0.22101	0.01938	0.57980	0.78391	21.0	13111	100
2025-5-25 10:41:11.485	WT901BLE68(801231B9234C)	-0.401	1.083	0.445	14.465	2.441	-19.287	76.18	4.35	170.93	9.016	-46.648	13.524	0.22101	0.01938	0.57980	0.78391	21.0	13111	100
2025-5-25 10:41:11.514	WT901BLE68(801231B9234C)	-0.313	1.159	0.450	18.860	-41.565	-27.344	76.39	4.83	170.50	9.016	-46.648	13.524	0.22101	0.01938	0.57980	0.78391	21.0	13111	100
2025-5-25 10:41:11.514	WT901BLE68(801231B9234C)	-0.260	1.167	0.430	20.264	-70.313	-33.997	76.59	5.30	169.38	9.016	-46.648	13.524	0.22101	0.01938	0.57980	0.78391	21.0	13111	100
2025-5-25 10:41:11.546	WT901BLE68(801231B9234C)	-0.192	1.126	0.469	16.785	-85.571	-39.490	76.69	5.78	167.84	9.016	-46.648	13.524	0.22101	0.01938	0.57980	0.78391	21.0	13111	100
2025-5-25 10:41:11.546	WT901BLE68(801231B9234C)	-0.109	1.011	0.510	12.329	-87.769	-41.626	76.69	6.28	166.12	9.016	-46.648	13.524	0.22101	0.01938	0.57980	0.78391	21.0	13111	100
2025-5-25 10:41:11.605	WT901BLE68(801231B9234C)	-0.074	0.863	0.496	8.362	-74.890	-44.373	76.57	6.83	164.54	9.016	-46.648	13.524	0.14502	0.04257	0.62183	0.76837	21.0	13111	100
2025-5-25 10:41:11.605	WT901BLE68(801231B9234C)	-0.134	0.787	0.465	6.165	-49.316	-47.852	76.42	7.53	163.33	9.016	-46.648	13.524	0.14502	0.04257	0.62183	0.76837	21.0	13111	100
2025-5-25 10:41:11.634	WT901BLE68(801231B9234C)	-0.225	0.817	0.457	3.174	-30.334	-44.373	76.25	8.30	162.56	9.016	-46.648	13.524	0.14502	0.04257	0.62183	0.76837	21.0	13111	100
2025-5-25 10:41:11.634	WT901BLE68(801231B9234C)	-0.323	0.850	0.437	4.333	-25.208	-34.302	76.07	8.94	162.00	9.016	-46.648	13.524	0.14502	0.04257	0.62183	0.76837	21.0	13111	100
2025-5-25 10:41:11.664	WT901BLE68(801231B9234C)	-0.436	0.900	0.417	6.531	-39.429	-23.315	75.93	9.35	161.37	9.016	-46.648	13.524	0.14502	0.04257	0.62183	0.76837	21.0	13111	100
2025-5-25 10:41:11.664	WT901BLE68(801231B9234C)	-0.504	0.921	0.378	8.423	-72.449	-8.423	75.75	9.38	160.29	9.016	-46.648	13.524	0.14502	0.04257	0.62183	0.76837	21.0	13111	100
2025-5-25 10:41:11.725	WT901BLE68(801231B9234C)	-0.535	0.916	0.325	11.658	-122.681	3.540	75.52	8.96	158.46	9.016	-46.648	13.524	0.14502	0.04257	0.62183	0.76837	21.0	13111	100
2025-5-25 10:41:11.726	WT901BLE68(801231B9234C)	-0.513	0.942	0.293	12.878	-185.242	8.484	75.20	8.14	155.56	9.016	-46.648	13.524	0.14502	0.04257	0.62183	0.76837	21.0	13111	100
2025-5-25 10:41:11.756	WT901BLE68(801231B9234C)	-0.417	0.960	0.243	12.268	-244.263	7.141	74.81	7.00	151.56	9.016	-46.648	13.524	0.14502	0.04257	0.62183	0.76837	21.0	13111	100
2025-5-25 10:41:11.756	WT901BLE68(801231B9234C)	-0.310	1.012	0.171	10.315	-281.311	-0.977	74.40	5.72	146.70	9.016	-46.648	13.524	0.14502	0.04257	0.62183	0.76837	21.0	13111	100
2025-5-25 10:41:11.788	WT901BLE68(801231B9234C)	-0.197	1.064	0.123	1.099	-292.847	-11.108	73.96	4.52	141.45	9.016	-46.648	13.524	0.14502	0.04257	0.62183	0.76837	21.0	13111	100
2025-5-25 10:41:11.788	WT901BLE68(801231B9234C)	-0.094	1.069	0.068	-9.277	-274.475	-23.193	73.46	3.52	136.32	16.660	-45.570	12.152	0.14502	0.04257	0.62183	0.76837	21.0	13111	100
2025-5-25 10:41:11.845	WT901BLE68(801231B9234C)	-0.036	1.060	0.052	-22.278	-233.582	-38.696	72.86	2.93	131.76	16.660	-45.570	12.152	0.14502	0.04257	0.62183	0.76837	21.0	13111	100
2025-5-25 10:41:11.845	WT901BLE68(801231B9234C)	-0.023	1.027	0.052	-34.058	-182.007	-54.871	72.12	2.85	127.99	16.660	-45.570	12.152	0.14502	0.04257	0.62183	0.76837	21.0	13111	100
2025-5-25 10:41:11.873	WT901BLE68(801231B9234C)	-0.072	0.945	0.050	-44.983	-130.310	-71.289	71.23	3.28	125.06	16.660	-45.570	12.152	0.14502	0.04257	0.62183	0.76837	21.0	13111	100
2025-5-25 10:41:11.874	WT901BLE68(801231B9234C)	-0.100	1.011	0.035	-45.532	-87.219	-76.111	70.29	4.12	122.84	16.660	-45.570	12.152	0.14502	0.04257	0.62183	0.76837	21.0	13111	100
2025-5-25 10:41:12.25	WT901BLE68(801231B9234C)	-0.122	1.012	0.016	-44.373	-52.612	-83.069	69.39	5.28	121.16	16.660	-45.570	12.152	0.14502	0.04257	0.62183	0.76837	21.0	13111	100
2025-5-25 10:41:12.25	WT901BLE68(801231B9234C)	-0.170	1.031	0.007	-40.771	-22.278	-85.449	68.61	6.69	119.95	16.660	-45.570	12.152	0.14502	0.04257	0.62183	0.76837	21.0	13111	100
2025-5-25 10:41:12.26	WT901BLE68(801231B9234C)	-0.216	1.024	0.015	-35.767	0.610	-85.022	67.96	8.23	119.11	16.660	-45.570	12.152	0.14502	0.04257	0.62183	0.76837	21.0	13111	100
2025-5-25 10:41:12.26	WT901BLE68(801231B9234C)	-0.234	1.007	0.020	-30.945	10.620	-85.999	67.43	9.86	118.49	16.660	-45.570	12.152	0.14502	0.04257	0.62183	0.76837	21.0	13111	100
2025-5-25 10:41:12.28	WT901BLE68(801231B9234C)	-0.235	1.009	0.005	-23.499	15.625	-86.731	67.07	11.54	117.92	16.660	-45.570	12.152	0.14502	0.04257	0.62183	0.76837	21.0	13111	100
2025-5-25 10:41:12.28	WT901BLE68(801231B9234C)	-0.236	1.011	-0.014	-14.221	13.245	-84.229	66.86	13.17	117.31	16.660	-45.570	12.152	0.14502	0.04257	0.62183	0.76837	21.0	13111	100
2025-5-25 10:41:12.56	WT901BLE68(801231B9234C)	-0.237	1.014	-0.018	-4.028	6.897	-80.200	66.82	14.68	116.61	16.660	-45.570	12.152	0.14502	0.04257	0.62183	0.76837	21.0	13111	100
2025-5-25 10:41:12.56	WT901BLE68(801231B9234C)	-0.245	0.993	-0.005	7.141	-2.747	-74.829	66.97	16.02	115.77	16.660	-45.570	12.152	0.14502	0.04257	0.62183	0.76837	21.0	13111	100
2025-5-25 10:41:12.115	WT901BLE68(801231B9234C)	-0.255	0.949	0.021	17.456	-16.174	-71.228	67.26	17.18	114.74	16.660	-45.570	12.152	0.51324	0.19666	0.53015	0.64554	21.0	13111	100
2025-5-25 10:41:12.115	WT901BLE68(801231B9234C)	-0.256	0.894	0.043	27.588	-35.767	-66.406	67.61	18.12	113.37	16.660	-45.570	12.152	0.51324	0.19666	0.53015	0.64554	21.0	13111	100
2025-5-25 10:41:12.116	WT901BLE68(801231B9234C)	-0.225	0.892	0.059	34.912	-55.542	-63.293	68.03	18.88	111.72	16.660	-45.570	12.152	0.51324	0.19666	0.53015	0.64554	21.0	13111	100
2025-5-25 10:41:12.116	WT901BLE68(801231B9234C)	-0.201	0.912	0.070	41.626	-70.618	-55.115	68.48	19.40	109.79	16.660	-45.570	12.152	0.51324	0.19666	0.53015	0.64554	21.0	13111	100
2025-5-25 10:41:12.235	WT901BLE68(801231B9234C)	-0.199	0.895	0.082	45.471	-80.566	-49.683	68.95	19.72	107.72	16.660	-45.570	12.152	0.51324	0.19666	0.53015	0.64554	21.0	13111	100
2025-5-25 10:41:12.236	WT901BLE68(801231B9234C)	-0.184	0.904	0.088	47.668	-87.585	-43.762	69.42	19.90	105.54	16.660	-45.570	12.152	0.51324	0.19666	0.53015	0.64554	21.0	13111	100
2025-5-25 10:41:12.237	WT901BLE68(801231B9234C)	-0.167	0.922	0.090	49.072	-90.759	-36.377	69.90	19.93	103.35	16.660	-45.570	12.152	0.51324	0.19666	0.53015	0.64554	21.0	13111	100
2025-5-25 10:41:12.237	WT901BLE68(801231B9234C)	-0.146	0.955	0.101	49.622	-89.050	-28.442	70.39	19.84	101.23	16.660	-45.570	12.152	0.51324	0.19666	0.53015	0.64554	21.0	13111	100
2025-5-25 10:41:12.297	WT901BLE68(801231B9234C)	-0.129	0.981	0.108	49.622	-81.787	-20.386	70.95	19.64	99.29	16.660	-45.570	12.152	0.51324	0.19666	0.53015	0.64554	21.0	13111	100
2025-5-25 10:41:12.297	WT901BLE68(801231B9234C)	-0.124	0.987	0.122	49.255	-69.519	-12.817	71.58	19.36	97.64	16.660	-45.570	12.152	0.51324	0.19666	0.53015	0.64554	21.0	13111	100
2025-5-25 10:41:12.297	WT901BLE68(801231B9234C)	-0.119	0.997	0.141	48.767	-54.993	-6.836	72.30	19.07	96.32	37.142	-33.810	-2.254	0.51324	0.19666	0.53015	0.64554	21.0	13111	100
2025-5-25 10:41:12.297	WT901BLE68(801231B9234C)	-0.124	0.995	0.159	47.974	-38.208	-1.282	73.10	18.77	95.38	37.142	-33.810	-2.254	0.51324	0.19666	0.53015	0.64554	21.0	13111	100
2025-5-25 10:41:12.324	WT901BLE68(801231B9234C)	-0.129	0.989	0.181	46.326	-23.010	2.197	73.97	18.48	94.79	37.142	-33.810	-2.254	0.51324	0.19666	0.53015	0.64554	21.0	13111	100
2025-5-25 10:41:12.324	WT901BLE68(801231B9234C)	-0.136	0.972	0.208	43.701	-10.254	5.005	74.87	18.22	94.50	37.142	-33.810	-2.254	0.51324	0.19666	0.53015	0.64554	21.0	13111	100
2025-5-25 10:41:12.356	WT901BLE68(801231B9234C)	-0.153	0.956	0.220	39.978	-1.038	6.897	75.76	17.97	94.45	37.142	-33.810	-2.254	0.51324	0.19666	0.53015	0.64554	21.0	13111	100
2025-5-25 10:41:12.356	WT901BLE68(801231B9234C)	-0.140	0.938	0.218	37.415	8.667	7.813	76.61	17.74	94.61	37.142	-33.810	-2.254	0.51324	0.19666	0.53015	0.64554	21.0	13111	100
2025-5-25 10:41:12.566	WT901BLE68(801231B9234C)	-0.158	0.940	0.216	33.936	13.306	14.526	77.44	17.46	94.93	37.142	-33.810	-2.254	0.58377	0.33936	0.53824	0.50418	21.0	13111	100
2025-5-25 10:41:12.566	WT901BLE68(801231B9234C)	-0.181	0.933	0.214	31.006	18.616	19.592	78.21	17.09	95.39	37.142	-33.810	-2.254	0.58377	0.33936	0.53824	0.50418	21.0	13111	100
2025-5-25 10:41:12.567	WT901BLE68(801231B9234C)	-0.206	0.925	0.227	29.297	19.226	26.245	78.95	16.61	95.93	37.142	-33.810	-2.254	0.58377	0.33936	0.53824	0.50418	21.0	13111	100
2025-5-25 10:41:12.567	WT901BLE68(801231B9234C)	-0.214	0.918	0.249	26.672	14.099	31.738	79.61	16.00	96.44	37.142	-33.810	-2.254	0.58377	0.33936	0.53824	0.50418	21.0	13111	100
2025-5-25 10:41:12.568	WT901BLE68(801231B9234C)	-0.213	0.940	0.242	25.513	5.859	38.757	80.18	15.25	96.83	37.142	-33.810	-2.254	0.58377	0.33936	0.53824	0.50418	21.0	13111	100
2025-5-25 10:41:12.568	WT901BLE68(801231B9234C)	-0.213	0.977	0.230	23.682	0.305	48.218	80.67	14.34	97.11	37.142	-33.810	-2.254	0.58377	0.33936	0.53824	0.50418	21.0	13111	100
2025-5-25 10:41:12.568	WT901BLE68(801231B9234C)	-0.226	1.006	0.222	21.790	-2.319	59.143	81.11	13.21	97.36	37.142	-33.810	-2.254	0.58377	0.33936	0.53824	0.50418	21.0	13111	100
2025-5-25 10:41:12.568	WT901BLE68(801231B9234C)	-0.226	1.044	0.208	20.508	-3.540	69.824	81.50	11.88	97.60	37.142	-33.810	-2.254	0.58377	0.33936	0.53824	0.50418	21.0	13111	100
2025-5-25 10:41:12.569	WT901BLE68(801231B9234C)	-0.235	1.085	0.201	19.531	-2.502	80.933	81.86	10.35	97.88	37.142	-33.810	-2.254	0.58377	0.33936	0.53824	0.50418	21.0	13111	100
2025-5-25 10:41:12.569	WT901BLE68(801231B9234C)	-0.249	1.132	0.206	18.616	0.244	89.050	82.22	8.66	98.22	37.142	-33.810	-2.254	0.58377	0.33936	0.53824	0.50418	21.0	13111	100
2025-5-25 10:41:12.598	WT901BLE68(801231B9234C)	-0.260	1.157	0.212	17.395	2.319	93.567	82.55	6.88	98.64	37.142	-33.810	-2.254	0.58377	0.33936	0.53824	0.50418	21.0	13111	100
2025-5-25 10:41:12.598	WT901BLE68(801231B9234C)	-0.279	1.175	0.224	16.113	3.052	93.262	82.85	5.09	99.07	31.066	-39.200	2.254	0.58377	0.33936	0.53824	0.50418	21.0	13111	100
2025-5-25 10:41:12.655	WT901BLE68(801231B9234C)	-0.290	1.187	0.259	13.733	3.113	87.646	83.09	3.39	99.52	31.066	-39.200	2.254	0.58377	0.33936	0.53824	0.50418	21.0	13111	100
2025-5-25 10:41:12.655	WT901BLE68(801231B9234C)	-0.298	1.151	0.299	9.155	-0.732	75.867	83.23	1.90	99.93	31.066	-39.200	2.254	0.58377	0.33936	0.53824	0.50418	21.0	13111	100
2025-5-25 10:41:12.684	WT901BLE68(801231B9234C)	-0.322	1.071	0.342	2.319	-8.911	58.594	83.24	0.71	100.22	31.066	-39.200	2.254	0.58377	0.33936	0.53824	0.50418	21.0	13111	100
2025-5-25 10:41:12.685	WT901BLE68(801231B9234C)	-0.333	1.051	0.365	-2.686	-24.841	40.100	83.10	-0.12	100.26	31.066	-39.200	2.254	0.58377	0.33936	0.53824	0.50418	21.0	13111	100
2025-5-25 10:41:12.714	WT901BLE68(801231B9234C)	-0.328	1.083	0.404	-9.705	-47.485	27.893	82.84	-0.71	99.93	31.066	-39.200	2.254	0.58377	0.33936	0.53824	0.50418	21.0	13111	100
2025-5-25 10:41:12.715	WT901BLE68(801231B9234C)	-0.278	1.103	0.446	-16.479	-73.730	11.292	82.44	-1.07	99.13	31.066	-39.200	2.254	0.58377	0.33936	0.53824	0.50418	21.0	13111	100
2025-5-25 10:41:12.776	WT901BLE68(801231B9234C)	-0.207	1.091	0.453	-26.062	-96.741	-1.160	81.88	-1.22	97.84	31.066	-39.200	2.254	0.58377	0.33936	0.53824	0.50418	21.0	13111	100
2025-5-25 10:41:12.777	WT901BLE68(801231B9234C)	-0.131	1.049	0.455	-38.025	-107.178	-13.245	81.10	-1.20	96.25	31.066	-39.200	2.254	0.58377	0.33936	0.53824	0.50418	21.0	13111	100
2025-5-25 10:41:12.806	WT901BLE68(801231B9234C)	-0.072	0.996	0.446	-51.270	-105.225	-23.438	80.06	-1.02	94.58	31.066	-39.200	2.254	0.58377	0.33936	0.53824	0.50418	21.0	13111	100
2025-5-25 10:41:12.806	WT901BLE68(801231B9234C)	-0.021	0.979	0.430	-62.195	-94.788	-32.349	78.77	-0.68	93.02	31.066	-39.200	2.254	0.53186	0.44360	0.45197	0.56210	21.0	13111	100
2025-5-25 10:41:12.836	WT901BLE68(801231B9234C)	0.005	0.984	0.428	-73.425	-76.965	-36.621	77.28	-0.23	91.70	31.066	-39.200	2.254	0.53186	0.44360	0.45197	0.56210	21.0	13111	100
2025-5-25 10:41:12.837	WT901BLE68(801231B9234C)	-0.012	0.941	0.423	-84.167	-55.603	-38.757	75.56	0.30	90.73	31.066	-39.200	2.254	0.53186	0.44360	0.45197	0.56210	21.0	13111	100
2025-5-25 10:41:12.899	WT901BLE68(801231B9234C)	-0.032	0.899	0.381	-91.370	-39.001	-41.748	73.68	0.90	90.04	31.066	-39.200	2.254	0.53186	0.44360	0.45197	0.56210	21.0	13111	100
2025-5-25 10:41:12.899	WT901BLE68(801231B9234C)	-0.035	0.913	0.365	-95.276	-28.503	-46.448	71.71	1.62	89.51	31.066	-39.200	2.254	0.53186	0.44360	0.45197	0.56210	21.0	13111	100
2025-5-25 10:41:12.926	WT901BLE68(801231B9234C)	-0.035	1.001	0.300	-92.163	-23.071	-50.598	69.79	2.43	89.00	31.066	-39.200	2.254	0.53186	0.44360	0.45197	0.56210	21.0	13111	100
2025-5-25 10:41:12.926	WT901BLE68(801231B9234C)	0.039	1.027	0.243	-89.539	-17.029	-48.462	67.95	3.25	88.49	31.066	-39.200	2.254	0.53186	0.44360	0.45197	0.56210	21.0	13111	100
2025-5-25 10:41:12.956	WT901BLE68(801231B9234C)	0.089	0.883	0.242	-88.684	-13.062	-45.654	66.20	3.94	88.04	31.066	-39.200	2.254	0.53186	0.44360	0.45197	0.56210	21.0	13111	100
2025-5-25 10:41:12.956	WT901BLE68(801231B9234C)	0.097	1.011	0.286	-72.632	-6.104	-30.640	64.69	4.47	87.69	31.066	-39.200	2.254	0.53186	0.44360	0.45197	0.56210	21.0	13111	100
2025-5-25 10:41:13.16	WT901BLE68(801231B9234C)	0.111	0.926	0.345	-67.200	-13.550	-29.663	63.35	4.91	87.29	26.362	-38.024	-13.916	0.53186	0.44360	0.45197	0.56210	21.0	13111	100
2025-5-25 10:41:13.16	WT901BLE68(801231B9234C)	0.111	0.824	0.341	-55.237	-23.071	-27.344	62.21	5.19	86.70	26.362	-38.024	-13.916	0.53186	0.44360	0.45197	0.56210	21.0	13111	100
2025-5-25 10:41:13.46	WT901BLE68(801231B9234C)	0.107	0.799	0.369	-44.067	-38.940	-20.447	61.28	5.24	85.90	26.362	-38.024	-13.916	0.53186	0.44360	0.45197	0.56210	21.0	13111	100
2025-5-25 10:41:13.47	WT901BLE68(801231B9234C)	0.147	0.815	0.375	-34.363	-60.547	-10.925	60.53	4.92	84.86	26.362	-38.024	-13.916	0.53186	0.44360	0.45197	0.56210	21.0	13111	100
2025-5-25 10:41:13.76	WT901BLE68(801231B9234C)	0.224	0.816	0.356	-25.085	-80.872	-0.427	59.97	4.20	83.52	26.362	-38.024	-13.916	0.53186	0.44360	0.45197	0.56210	21.0	13111	100
2025-5-25 10:41:13.76	WT901BLE68(801231B9234C)	0.253	0.828	0.335	-21.362	-89.172	14.709	59.55	3.08	82.10	26.362	-38.024	-13.916	0.53186	0.44360	0.45197	0.56210	21.0	13111	100
2025-5-25 10:41:13.135	WT901BLE68(801231B9234C)	0.251	0.804	0.327	-18.311	-81.238	22.766	59.21	1.78	80.83	26.362	-38.024	-13.916	0.53186	0.44360	0.45197	0.56210	21.0	13111	100
2025-5-25 10:41:13.135	WT901BLE68(801231B9234C)	0.260	0.798	0.337	-17.395	-67.017	29.419	58.96	0.49	79.85	26.362	-38.024	-13.916	0.53186	0.44360	0.45197	0.56210	21.0	13111	100
2025-5-25 10:41:13.167	WT901BLE68(801231B9234C)	0.259	0.760	0.339	-14.648	-50.110	34.912	58.74	-0.77	79.20	26.362	-38.024	-13.916	0.53186	0.44360	0.45197	0.56210	21.0	13111	100
2025-5-25 10:41:13.167	WT901BLE68(801231B9234C)	0.227	0.734	0.348	-11.230	-26.611	36.621	58.61	-1.87	78.95	26.362	-38.024	-13.916	0.53186	0.44360	0.45197	0.56210	21.0	13111	100
2025-5-25 10:41:13.198	WT901BLE68(801231B9234C)	0.164	0.732	0.374	-7.324	-4.700	35.767	58.51	-2.72	79.09	26.362	-38.024	-13.916	0.53186	0.44360	0.45197	0.56210	21.0	13111	100
2025-5-25 10:41:13.198	WT901BLE68(801231B9234C)	0.111	0.743	0.388	-1.282	8.179	34.363	58.49	-3.39	79.48	26.362	-38.024	-13.916	0.65787	0.39774	0.29169	0.56906	21.0	13111	100
2025-5-25 10:41:13.254	WT901BLE68(801231B9234C)	0.075	0.754	0.430	5.371	10.559	32.349	58.59	-3.94	79.96	26.362	-38.024	-13.916	0.65787	0.39774	0.29169	0.56906	21.0	13111	100
2025-5-25 10:41:13.254	WT901BLE68(801231B9234C)	0.076	0.727	0.463	11.475	5.310	30.701	58.79	-4.48	80.39	26.362	-38.024	-13.916	0.65787	0.39774	0.29169	0.56906	21.0	13111	100
2025-5-25 10:41:13.284	WT901BLE68(801231B9234C)	0.109	0.724	0.506	18.188	-4.028	26.733	59.13	-5.03	80.65	26.362	-38.024	-13.916	0.65787	0.39774	0.29169	0.56906	21.0	13111	100
2025-5-25 10:41:13.284	WT901BLE68(801231B9234C)	0.115	0.768	0.532	21.729	-7.690	22.095	59.55	-5.55	80.76	26.362	-38.024	-13.916	0.65787	0.39774	0.29169	0.56906	21.0	13111	100
2025-5-25 10:41:13.344	WT901BLE68(801231B9234C)	0.154	0.771	0.529	21.484	-5.676	19.531	59.97	-6.00	80.86	26.362	-38.024	-13.916	0.65787	0.39774	0.29169	0.56906	21.0	13111	100
2025-5-25 10:41:13.345	WT901BLE68(801231B9234C)	0.170	0.742	0.512	20.752	2.930	15.564	60.35	-6.33	81.05	26.362	-38.024	-13.916	0.65787	0.39774	0.29169	0.56906	21.0	13111	100
2025-5-25 10:41:13.375	WT901BLE68(801231B9234C)	0.148	0.746	0.490	19.470	19.104	8.972	60.69	-6.43	81.45	26.362	-38.024	-13.916	0.65787	0.39774	0.29169	0.56906	21.0	13111	100
2025-5-25 10:41:13.375	WT901BLE68(801231B9234C)	0.106	0.779	0.485	17.700	35.522	2.869	60.95	-6.26	82.08	26.362	-38.024	-13.916	0.65787	0.39774	0.29169	0.56906	21.0	13111	100
2025-5-25 10:41:13.404	WT901BLE68(801231B9234C)	0.058	0.819	0.481	15.442	47.791	-0.977	61.15	-5.88	82.92	26.362	-38.024	-13.916	0.65787	0.39774	0.29169	0.56906	21.0	13111	100
2025-5-25 10:41:13.404	WT901BLE68(801231B9234C)	0.040	0.814	0.477	13.428	53.406	-3.235	61.30	-5.38	83.88	19.208	-36.554	-22.736	0.65787	0.39774	0.29169	0.56906	21.0	13111	100
2025-5-25 10:41:13.464	WT901BLE68(801231B9234C)	0.043	0.808	0.483	14.526	52.124	-6.165	61.45	-4.82	84.83	19.208	-36.554	-22.736	0.65787	0.39774	0.29169	0.56906	21.0	13111	100
2025-5-25 10:41:13.464	WT901BLE68(801231B9234C)	0.050	0.838	0.471	15.747	52.124	-9.216	61.65	-4.20	85.72	19.208	-36.554	-22.736	0.65787	0.39774	0.29169	0.56906	21.0	13111	100
2025-5-25 10:41:13.499	WT901BLE68(801231B9234C)	0.047	0.831	0.454	14.893	57.129	-10.925	61.85	-3.53	86.65	19.208	-36.554	-22.736	0.65787	0.39774	0.29169	0.56906	21.0	13111	100
2025-5-25 10:41:13.499	WT901BLE68(801231B9234C)	0.033	0.809	0.450	15.320	62.561	-14.954	62.06	-2.75	87.65	19.208	-36.554	-22.736	0.65787	0.39774	0.29169	0.56906	21.0	13111	100
2025-5-25 10:41:13.524	WT901BLE68(801231B9234C)	0.010	0.807	0.438	15.808	65.674	-18.616	62.29	-1.88	88.69	19.208	-36.554	-22.736	0.65787	0.39774	0.29169	0.56906	21.0	13111	100
2025-5-25 10:41:13.525	WT901BLE68(801231B9234C)	-0.002	0.831	0.417	17.578	65.796	-22.034	62.56	-0.93	89.71	19.208	-36.554	-22.736	0.65787	0.39774	0.29169	0.56906	21.0	13111	100
2025-5-25 10:41:13.585	WT901BLE68(801231B9234C)	-0.011	0.861	0.405	19.165	64.575	-22.583	62.89	0.02	90.70	19.208	-36.554	-22.736	0.65787	0.39774	0.29169	0.56906	21.0	13111	100
2025-5-25 10:41:13.585	WT901BLE68(801231B9234C)	-0.016	0.873	0.402	20.630	62.317	-21.423	63.26	0.94	91.66	19.208	-36.554	-22.736	0.65787	0.39774	0.29169	0.56906	21.0	13111	100
2025-5-25 10:41:13.614	WT901BLE68(801231B9234C)	-0.029	0.894	0.438	23.438	62.744	-21.118	63.69	1.82	92.60	19.208	-36.554	-22.736	0.65787	0.39774	0.29169	0.56906	21.0	13111	100
2025-5-25 10:41:13.614	WT901BLE68(801231B9234C)	-0.050	0.895	0.422	27.466	66.223	-20.020	64.23	2.71	93.60	19.208	-36.554	-22.736	0.58170	0.35089	0.40927	0.60901	21.0	13111	100
2025-5-25 10:41:13.644	WT901BLE68(801231B9234C)	-0.063	0.914	0.364	28.809	67.139	-15.808	64.84	3.55	94.69	19.208	-36.554	-22.736	0.58170	0.35089	0.40927	0.60901	21.0	13111	100
2025-5-25 10:41:13.644	WT901BLE68(801231B9234C)	-0.052	0.933	0.382	24.658	61.340	-13.367	65.41	4.29	95.73	19.208	-36.554	-22.736	0.58170	0.35089	0.40927	0.60901	21.0	13111	100
2025-5-25 10:41:13.703	WT901BLE68(801231B9234C)	-0.035	0.933	0.412	23.376	55.603	-10.681	65.94	4.93	96.69	19.208	-36.554	-22.736	0.58170	0.35089	0.40927	0.60901	21.0	13111	100
2025-5-25 10:41:13.703	WT901BLE68(801231B9234C)	-0.028	0.940	0.389	23.071	48.828	-7.813	66.45	5.45	97.55	19.208	-36.554	-22.736	0.58170	0.35089	0.40927	0.60901	21.0	13111	100
2025-5-25 10:41:13.734	WT901BLE68(801231B9234C)	-0.055	0.919	0.339	22.949	47.424	-4.395	66.97	5.88	98.39	19.208	-36.554	-22.736	0.58170	0.35089	0.40927	0.60901	21.0	13111	100
2025-5-25 10:41:13.734	WT901BLE68(801231B9234C)	-0.054	0.895	0.360	24.536	49.927	-0.244	67.53	6.23	99.29	19.208	-36.554	-22.736	0.58170	0.35089	0.40927	0.60901	21.0	13111	100
2025-5-25 10:41:13.764	WT901BLE68(801231B9234C)	-0.076	0.918	0.382	26.672	53.528	4.883	68.13	6.50	100.29	19.208	-36.554	-22.736	0.58170	0.35089	0.40927	0.60901	21.0	13111	100
2025-5-25 10:41:13.765	WT901BLE68(801231B9234C)	-0.077	0.940	0.381	26.367	55.542	8.301	68.74	6.72	101.37	19.208	-36.554	-22.736	0.58170	0.35089	0.40927	0.60901	21.0	13111	100
2025-5-25 10:41:13.824	WT901BLE68(801231B9234C)	-0.080	0.940	0.358	27.039	56.824	12.146	69.36	6.87	102.51	29.596	-38.122	-8.232	0.58170	0.35089	0.40927	0.60901	21.0	13111	100
2025-5-25 10:41:13.825	WT901BLE68(801231B9234C)	-0.123	0.944	0.339	26.978	60.608	13.977	70.01	6.97	103.73	29.596	-38.122	-8.232	0.58170	0.35089	0.40927	0.60901	21.0	13111	100
2025-5-25 10:41:13.853	WT901BLE68(801231B9234C)	-0.145	0.979	0.348	27.466	60.791	13.916	70.66	7.07	104.99	29.596	-38.122	-8.232	0.58170	0.35089	0.40927	0.60901	21.0	13111	100
2025-5-25 10:41:13.853	WT901BLE68(801231B9234C)	-0.162	0.994	0.333	27.344	57.251	15.137	71.31	7.12	106.22	29.596	-38.122	-8.232	0.58170	0.35089	0.40927	0.60901	21.0	13111	100
2025-5-25 10:41:13.884	WT901BLE68(801231B9234C)	-0.159	1.009	0.324	26.001	53.101	17.212	71.93	7.11	107.39	29.596	-38.122	-8.232	0.58170	0.35089	0.40927	0.60901	21.0	13111	100
2025-5-25 10:41:13.884	WT901BLE68(801231B9234C)	-0.152	0.991	0.333	24.109	45.593	17.395	72.50	7.06	108.45	29.596	-38.122	-8.232	0.58170	0.35089	0.40927	0.60901	21.0	13111	100
2025-5-25 10:41:13.944	WT901BLE68(801231B9234C)	-0.150	0.983	0.317	22.949	43.884	17.578	73.05	6.97	109.43	29.596	-38.122	-8.232	0.58170	0.35089	0.40927	0.60901	21.0	13111	100
2025-5-25 10:41:13.945	WT901BLE68(801231B9234C)	-0.171	0.971	0.313	20.752	46.021	17.700	73.55	6.88	110.43	29.596	-38.122	-8.232	0.58170	0.35089	0.40927	0.60901	21.0	13111	100
2025-5-25 10:41:13.974	WT901BLE68(801231B9234C)	-0.177	0.969	0.300	18.555	46.692	16.907	74.00	6.81	111.47	29.596	-38.122	-8.232	0.58170	0.35089	0.40927	0.60901	21.0	13111	100
2025-5-25 10:41:13.975	WT901BLE68(801231B9234C)	-0.183	0.957	0.285	16.602	46.265	16.663	74.41	6.74	112.51	29.596	-38.122	-8.232	0.58170	0.35089	0.40927	0.60901	21.0	13111	100
2025-5-25 10:41:14.4	WT901BLE68(801231B9234C)	-0.196	0.943	0.268	14.893	45.837	16.541	74.78	6.67	113.54	29.596	-38.122	-8.232	0.58170	0.35089	0.40927	0.60901	21.0	13111	100
2025-5-25 10:41:14.4	WT901BLE68(801231B9234C)	-0.209	0.931	0.253	13.916	44.739	16.602	75.12	6.61	114.56	29.596	-38.122	-8.232	0.45181	0.29520	0.53885	0.64670	21.0	13111	100
2025-5-25 10:41:14.98	WT901BLE68(801231B9234C)	-0.218	0.925	0.248	12.085	42.664	15.625	75.44	6.54	115.55	29.596	-38.122	-8.232	0.45181	0.29520	0.53885	0.64670	21.0	13111	100
2025-5-25 10:41:14.98	WT901BLE68(801231B9234C)	-0.224	0.924	0.224	10.742	39.551	13.855	75.71	6.50	116.48	29.596	-38.122	-8.232	0.45181	0.29520	0.53885	0.64670	21.0	13111	100
2025-5-25 10:41:14.99	WT901BLE68(801231B9234C)	-0.227	0.938	0.212	9.338	35.217	11.414	75.95	6.49	117.32	29.596	-38.122	-8.232	0.45181	0.29520	0.53885	0.64670	21.0	13111	100
2025-5-25 10:41:14.99	WT901BLE68(801231B9234C)	-0.206	0.978	0.213	7.080	30.090	7.141	76.16	6.51	118.06	29.596	-38.122	-8.232	0.45181	0.29520	0.53885	0.64670	21.0	13111	100
2025-5-25 10:41:14.124	WT901BLE68(801231B9234C)	-0.176	1.014	0.206	4.456	26.672	1.343	76.30	6.63	118.69	29.596	-38.122	-8.232	0.45181	0.29520	0.53885	0.64670	21.0	13111	100
2025-5-25 10:41:14.124	WT901BLE68(801231B9234C)	-0.199	1.008	0.179	2.319	28.931	-3.723	76.40	6.85	119.29	29.596	-38.122	-8.232	0.45181	0.29520	0.53885	0.64670	21.0	13111	100
2025-5-25 10:41:14.185	WT901BLE68(801231B9234C)	-0.216	1.027	0.151	0.854	33.142	-5.493	76.49	7.15	119.94	29.596	-38.122	-8.232	0.45181	0.29520	0.53885	0.64670	21.0	13111	100
2025-5-25 10:41:14.185	WT901BLE68(801231B9234C)	-0.228	1.044	0.163	-0.244	32.227	-3.845	76.57	7.44	120.61	29.596	-38.122	-8.232	0.45181	0.29520	0.53885	0.64670	21.0	13111	100
2025-5-25 10:41:14.214	WT901BLE68(801231B9234C)	-0.227	1.085	0.169	-2.197	25.391	-1.648	76.62	7.66	121.18	29.596	-38.122	-8.232	0.45181	0.29520	0.53885	0.64670	21.0	13111	100
2025-5-25 10:41:14.215	WT901BLE68(801231B9234C)	-0.196	1.088	0.157	-5.249	20.813	1.587	76.61	7.81	121.65	28.322	-41.258	5.586	0.45181	0.29520	0.53885	0.64670	21.0	13111	100
2025-5-25 10:41:14.244	WT901BLE68(801231B9234C)	-0.186	1.067	0.144	-8.301	22.156	3.967	76.55	7.88	122.09	28.322	-41.258	5.586	0.45181	0.29520	0.53885	0.64670	21.0	13111	100
2025-5-25 10:41:14.244	WT901BLE68(801231B9234C)	-0.188	1.069	0.131	-11.719	28.503	4.211	76.45	7.96	122.62	28.322	-41.258	5.586	0.45181	0.29520	0.53885	0.64670	21.0	13111	100
2025-5-25 10:41:14.334	WT901BLE68(801231B9234C)	-0.201	1.045	0.116	-14.526	35.706	3.967	76.31	8.07	123.27	28.322	-41.258	5.586	0.45181	0.29520	0.53885	0.64670	21.0	13111	100
2025-5-25 10:41:14.334	WT901BLE68(801231B9234C)	-0.204	1.016	0.116	-16.602	41.138	3.906	76.15	8.21	124.04	28.322	-41.258	5.586	0.45181	0.29520	0.53885	0.64670	21.0	13111	100
2025-5-25 10:41:14.335	WT901BLE68(801231B9234C)	-0.190	1.006	0.115	-17.883	43.213	4.089	75.98	8.37	124.86	28.322	-41.258	5.586	0.45181	0.29520	0.53885	0.64670	21.0	13111	100
2025-5-25 10:41:14.335	WT901BLE68(801231B9234C)	-0.192	0.970	0.097	-19.104	47.058	4.761	75.80	8.53	125.73	28.322	-41.258	5.586	0.45181	0.29520	0.53885	0.64670	21.0	13111	100
2025-5-25 10:41:14.397	WT901BLE68(801231B9234C)	-0.194	0.925	0.090	-20.020	51.575	4.333	75.62	8.71	126.67	28.322	-41.258	5.586	0.45181	0.29520	0.53885	0.64670	21.0	13111	100
2025-5-25 10:41:14.397	WT901BLE68(801231B9234C)	-0.187	0.939	0.101	-21.423	53.345	4.211	75.44	8.91	127.66	28.322	-41.258	5.586	0.45181	0.29520	0.53885	0.64670	21.0	13111	100
2025-5-25 10:41:14.424	WT901BLE68(801231B9234C)	-0.184	0.964	0.099	-21.912	55.908	3.540	75.25	9.13	128.67	28.322	-41.258	5.586	0.45181	0.29520	0.53885	0.64670	21.0	13111	100
2025-5-25 10:41:14.424	WT901BLE68(801231B9234C)	-0.196	0.956	0.100	-23.682	60.303	1.953	75.06	9.39	129.74	28.322	-41.258	5.586	0.45181	0.29520	0.53885	0.64670	21.0	13111	100
2025-5-25 10:41:14.454	WT901BLE68(801231B9234C)	-0.185	0.956	0.106	-25.208	60.242	0.916	74.85	9.68	130.84	28.322	-41.258	5.586	0.37234	0.19626	0.58041	0.69702	21.0	13111	100
2025-5-25 10:41:14.454	WT901BLE68(801231B9234C)	-0.170	0.983	0.110	-27.649	60.608	1.099	74.61	9.99	131.91	28.322	-41.258	5.586	0.37234	0.19626	0.58041	0.69702	21.0	13111	100
2025-5-25 10:41:14.484	WT901BLE68(801231B9234C)	-0.160	1.001	0.105	-31.006	64.636	0.671	74.32	10.30	133.02	28.322	-41.258	5.586	0.37234	0.19626	0.58041	0.69702	21.0	13111	100
2025-5-25 10:41:14.484	WT901BLE68(801231B9234C)	-0.140	1.045	0.095	-35.095	72.571	-0.366	73.99	10.67	134.24	28.322	-41.258	5.586	0.37234	0.19626	0.58041	0.69702	21.0	13111	100
2025-5-25 10:41:14.573	WT901BLE68(801231B9234C)	-0.131	1.096	0.076	-38.513	85.510	-2.075	73.64	11.11	135.65	28.322	-41.258	5.586	0.37234	0.19626	0.58041	0.69702	21.0	13111	100
2025-5-25 10:41:14.574	WT901BLE68(801231B9234C)	-0.135	1.120	0.060	-41.565	102.417	-5.249	73.30	11.68	137.32	28.322	-41.258	5.586	0.37234	0.19626	0.58041	0.69702	21.0	13111	100
2025-5-25 10:41:14.574	WT901BLE68(801231B9234C)	-0.122	1.128	0.045	-42.542	117.432	-9.033	73.01	12.41	139.25	28.322	-41.258	5.586	0.37234	0.19626	0.58041	0.69702	21.0	13111	100
2025-5-25 10:41:14.574	WT901BLE68(801231B9234C)	-0.152	1.064	0.080	-42.725	133.667	-11.414	72.80	13.28	141.43	28.322	-41.258	5.586	0.37234	0.19626	0.58041	0.69702	21.0	13111	100
2025-5-25 10:41:14.634	WT901BLE68(801231B9234C)	-0.209	0.996	0.019	-30.823	149.414	-20.081	72.87	14.29	143.89	28.322	-41.258	5.586	0.37234	0.19626	0.58041	0.69702	21.0	13111	100
2025-5-25 10:41:14.634	WT901BLE68(801231B9234C)	-0.253	0.973	0.034	-23.743	156.677	-8.118	73.18	15.36	146.57	28.322	-41.258	5.586	0.37234	0.19626	0.58041	0.69702	21.0	13111	100
2025-5-25 10:41:14.697	WT901BLE68(801231B9234C)	-0.281	0.924	0.099	-19.592	139.648	-5.554	73.66	16.19	149.16	26.656	-41.748	9.898	0.37234	0.19626	0.58041	0.69702	21.0	13111	100
2025-5-25 10:41:14.697	WT901BLE68(801231B9234C)	-0.277	0.874	0.172	-13.428	110.291	6.775	74.14	16.72	151.31	26.656	-41.748	9.898	0.37234	0.19626	0.58041	0.69702	21.0	13111	100
2025-5-25 10:41:14.697	WT901BLE68(801231B9234C)	-0.255	0.822	0.191	-8.667	79.224	16.907	74.56	16.86	152.94	26.656	-41.748	9.898	0.37234	0.19626	0.58041	0.69702	21.0	13111	100
2025-5-25 10:41:14.698	WT901BLE68(801231B9234C)	-0.210	0.790	0.215	-3.418	55.664	31.555	74.93	16.63	154.12	26.656	-41.748	9.898	0.37234	0.19626	0.58041	0.69702	21.0	13111	100
2025-5-25 10:41:14.754	WT901BLE68(801231B9234C)	-0.202	0.803	0.251	2.136	38.940	45.959	75.31	16.02	155.03	26.656	-41.748	9.898	0.37234	0.19626	0.58041	0.69702	21.0	13111	100
2025-5-25 10:41:14.754	WT901BLE68(801231B9234C)	-0.197	0.840	0.274	4.578	26.306	58.228	75.66	15.11	155.76	26.656	-41.748	9.898	0.37234	0.19626	0.58041	0.69702	21.0	13111	100
2025-5-25 10:41:14.785	WT901BLE68(801231B9234C)	-0.206	0.887	0.289	8.545	20.935	71.472	76.04	13.90	156.41	26.656	-41.748	9.898	0.37234	0.19626	0.58041	0.69702	21.0	13111	100
2025-5-25 10:41:14.786	WT901BLE68(801231B9234C)	-0.202	0.951	0.295	11.047	16.113	83.557	76.40	12.45	157.01	26.656	-41.748	9.898	0.37234	0.19626	0.58041	0.69702	21.0	13111	100
2025-5-25 10:41:14.814	WT901BLE68(801231B9234C)	-0.193	0.991	0.317	11.108	14.709	92.285	76.76	10.80	157.63	26.656	-41.748	9.898	0.37234	0.19626	0.58041	0.69702	21.0	13111	100
2025-5-25 10:41:14.814	WT901BLE68(801231B9234C)	-0.186	1.022	0.334	8.972	13.306	92.834	77.05	9.08	158.23	26.656	-41.748	9.898	0.18918	0.06317	0.62451	0.75504	21.0	13111	100
2025-5-25 10:41:14.874	WT901BLE68(801231B9234C)	-0.163	1.044	0.350	5.493	16.541	87.708	77.24	7.44	158.86	26.656	-41.748	9.898	0.18918	0.06317	0.62451	0.75504	21.0	13111	100
2025-5-25 10:41:14.874	WT901BLE68(801231B9234C)	-0.174	1.065	0.346	1.587	20.325	80.566	77.34	5.95	159.55	26.656	-41.748	9.898	0.18918	0.06317	0.62451	0.75504	21.0	13111	100
2025-5-25 10:41:14.903	WT901BLE68(801231B9234C)	-0.165	1.086	0.323	-4.517	24.597	74.280	77.32	4.64	160.31	26.656	-41.748	9.898	0.18918	0.06317	0.62451	0.75504	21.0	13111	100
2025-5-25 10:41:14.904	WT901BLE68(801231B9234C)	-0.152	1.021	0.298	-10.681	28.381	68.481	77.14	3.44	161.14	26.656	-41.748	9.898	0.18918	0.06317	0.62451	0.75504	21.0	13111	100
2025-5-25 10:41:14.934	WT901BLE68(801231B9234C)	-0.172	1.015	0.274	-12.146	30.396	56.824	76.90	2.47	162.00	26.656	-41.748	9.898	0.18918	0.06317	0.62451	0.75504	21.0	13111	100
2025-5-25 10:41:14.934	WT901BLE68(801231B9234C)	-0.181	1.031	0.269	-15.747	31.799	50.964	76.60	1.68	162.87	26.656	-41.748	9.898	0.18918	0.06317	0.62451	0.75504	21.0	13111	100
2025-5-25 10:41:14.998	WT901BLE68(801231B9234C)	-0.172	1.041	0.297	-18.188	35.950	47.668	76.22	0.99	163.81	26.656	-41.748	9.898	0.18918	0.06317	0.62451	0.75504	21.0	13111	100
2025-5-25 10:41:14.998	WT901BLE68(801231B9234C)	-0.156	1.058	0.321	-19.836	45.288	52.185	75.80	0.36	164.90	26.656	-41.748	9.898	0.18918	0.06317	0.62451	0.75504	21.0	13111	100
2025-5-25 10:41:15.24	WT901BLE68(801231B9234C)	-0.167	1.028	0.321	-23.193	58.777	46.326	75.31	-0.18	166.23	26.656	-41.748	9.898	0.18918	0.06317	0.62451	0.75504	21.0	13111	100
2025-5-25 10:41:15.25	WT901BLE68(801231B9234C)	-0.192	0.991	0.325	-26.062	73.181	40.466	74.75	-0.54	167.84	8.428	-46.550	13.916	0.18918	0.06317	0.62451	0.75504	21.0	13111	100
2025-5-25 10:41:15.55	WT901BLE68(801231B9234C)	-0.229	0.968	0.334	-28.015	79.529	33.081	74.13	-0.70	169.62	8.428	-46.550	13.916	0.18918	0.06317	0.62451	0.75504	21.0	13111	100
2025-5-25 10:41:15.55	WT901BLE68(801231B9234C)	-0.233	0.916	0.373	-31.433	77.393	24.231	73.47	-0.69	171.38	8.428	-46.550	13.916	0.18918	0.06317	0.62451	0.75504	21.0	13111	100
2025-5-25 10:41:15.114	WT901BLE68(801231B9234C)	-0.243	0.869	0.394	-30.701	66.467	12.207	72.77	-0.48	172.94	8.428	-46.550	13.916	0.18918	0.06317	0.62451	0.75504	21.0	13111	100
2025-5-25 10:41:15.114	WT901BLE68(801231B9234C)	-0.236	0.854	0.386	-28.809	50.537	0.977	72.13	-0.10	174.18	8.428	-46.550	13.916	0.18918	0.06317	0.62451	0.75504	21.0	13111	100
2025-5-25 10:41:15.143	WT901BLE68(801231B9234C)	-0.224	0.845	0.424	-27.771	30.396	-6.958	71.52	0.35	175.01	8.428	-46.550	13.916	0.18918	0.06317	0.62451	0.75504	21.0	13111	100
2025-5-25 10:41:15.144	WT901BLE68(801231B9234C)	-0.203	0.860	0.470	-26.306	9.827	-14.648	70.93	0.81	175.41	8.428	-46.550	13.916	0.18918	0.06317	0.62451	0.75504	21.0	13111	100
2025-5-25 10:41:15.174	WT901BLE68(801231B9234C)	-0.165	0.879	0.510	-28.809	-9.460	-19.897	70.32	1.27	175.39	8.428	-46.550	13.916	0.18918	0.06317	0.62451	0.75504	21.0	13111	100
2025-5-25 10:41:15.174	WT901BLE68(801231B9234C)	-0.134	0.880	0.531	-31.677	-24.353	-23.499	69.63	1.68	175.01	8.428	-46.550	13.916	0.18918	0.06317	0.62451	0.75504	21.0	13111	100
2025-5-25 10:41:15.234	WT901BLE68(801231B9234C)	-0.096	0.906	0.552	-35.095	-34.973	-26.245	68.86	2.05	174.38	8.428	-46.550	13.916	0.18918	0.06317	0.62451	0.75504	21.0	13111	100
2025-5-25 10:41:15.235	WT901BLE68(801231B9234C)	-0.062	0.903	0.563	-38.391	-41.931	-27.405	68.02	2.37	173.57	8.428	-46.550	13.916	0.18918	0.06317	0.62451	0.75504	21.0	13111	100
2025-5-25 10:41:15.298	WT901BLE68(801231B9234C)	-0.030	0.896	0.569	-40.405	-45.044	-28.809	67.11	2.65	172.64	8.428	-46.550	13.916	0.06549	0.02112	0.55463	0.82919	21.0	13111	100
2025-5-25 10:41:15.298	WT901BLE68(801231B9234C)	-0.000	0.913	0.585	-42.969	-46.692	-29.602	66.15	2.90	171.66	8.428	-46.550	13.916	0.06549	0.02112	0.55463	0.82919	21.0	13111	100
2025-5-25 10:41:15.298	WT901BLE68(801231B9234C)	0.020	0.938	0.562	-44.922	-44.861	-28.320	65.15	3.11	170.65	8.428	-46.550	13.916	0.06549	0.02112	0.55463	0.82919	21.0	13111	100
2025-5-25 10:41:15.298	WT901BLE68(801231B9234C)	0.032	0.945	0.525	-47.852	-38.452	-25.879	64.12	3.28	169.73	8.428	-46.550	13.916	0.06549	0.02112	0.55463	0.82919	21.0	13111	100
2025-5-25 10:41:15.354	WT901BLE68(801231B9234C)	0.026	0.913	0.492	-51.697	-29.602	-22.766	63.03	3.44	168.95	8.428	-46.550	13.916	0.06549	0.02112	0.55463	0.82919	21.0	13111	100
2025-5-25 10:41:15.354	WT901BLE68(801231B9234C)	0.034	0.891	0.486	-54.016	-24.170	-19.836	61.91	3.59	168.31	8.428	-46.550	13.916	0.06549	0.02112	0.55463	0.82919	21.0	13111	100
2025-5-25 10:41:15.385	WT901BLE68(801231B9234C)	0.036	0.862	0.461	-54.993	-18.860	-16.785	60.78	3.69	167.75	8.428	-46.550	13.916	0.06549	0.02112	0.55463	0.82919	21.0	13111	100
2025-5-25 10:41:15.385	WT901BLE68(801231B9234C)	0.036	0.872	0.431	-53.589	-12.939	-16.052	59.67	3.81	167.29	8.428	-46.550	13.916	0.06549	0.02112	0.55463	0.82919	21.0	13111	100
2025-5-25 10:41:15.414	WT901BLE68(801231B9234C)	0.032	0.880	0.406	-52.002	-7.080	-12.146	58.63	3.92	166.93	8.428	-46.550	13.916	0.06549	0.02112	0.55463	0.82919	21.0	13111	100
2025-5-25 10:41:15.415	WT901BLE68(801231B9234C)	0.020	0.862	0.394	-47.729	-2.075	-9.277	57.67	4.02	166.67	9.310	-47.726	1.176	0.06549	0.02112	0.55463	0.82919	21.0	13111	100
2025-5-25 10:41:15.503	WT901BLE68(801231B9234C)	0.014	0.891	0.399	-42.053	0.000	-5.859	56.85	4.09	166.47	9.310	-47.726	1.176	0.06549	0.02112	0.55463	0.82919	21.0	13111	100
2025-5-25 10:41:15.504	WT901BLE68(801231B9234C)	0.012	0.859	0.416	-39.001	-1.099	0.549	56.12	4.06	166.32	9.310	-47.726	1.176	0.06549	0.02112	0.55463	0.82919	21.0	13111	100
2025-5-25 10:41:15.504	WT901BLE68(801231B9234C)	0.019	0.778	0.452	-34.973	-6.226	3.967	55.46	3.91	166.14	9.310	-47.726	1.176	0.06549	0.02112	0.55463	0.82919	21.0	13111	100
2025-5-25 10:41:15.504	WT901BLE68(801231B9234C)	0.037	0.751	0.455	-28.381	-12.390	4.456	54.92	3.67	165.87	9.310	-47.726	1.176	0.06549	0.02112	0.55463	0.82919	21.0	13111	100
2025-5-25 10:41:15.806	WT901BLE68(801231B9234C)	0.067	0.769	0.451	-23.254	-17.761	5.371	54.49	3.36	165.52	9.310	-47.726	1.176	0.06549	0.02112	0.55463	0.82919	21.0	13111	100
2025-5-25 10:41:15.806	WT901BLE68(801231B9234C)	0.067	0.774	0.451	-19.897	-19.836	7.324	54.13	2.98	165.13	9.310	-47.726	1.176	0.06549	0.02112	0.55463	0.82919	21.0	13111	100
2025-5-25 10:41:15.807	WT901BLE68(801231B9234C)	0.065	0.768	0.439	-15.381	-17.334	8.484	53.85	2.58	164.76	9.310	-47.726	1.176	0.06549	0.02112	0.55463	0.82919	21.0	13111	100
2025-5-25 10:41:15.807	WT901BLE68(801231B9234C)	0.043	0.771	0.440	-11.475	-11.475	10.803	53.67	2.20	164.48	9.310	-47.726	1.176	0.06549	0.02112	0.55463	0.82919	21.0	13111	100
2025-5-25 10:41:15.807	WT901BLE68(801231B9234C)	0.005	0.757	0.455	-8.240	-5.920	12.146	53.55	1.86	164.32	9.310	-47.726	1.176	0.06549	0.02112	0.55463	0.82919	21.0	13111	100
2025-5-25 10:41:15.807	WT901BLE68(801231B9234C)	-0.028	0.747	0.474	-3.296	-4.578	12.268	53.53	1.56	164.21	9.310	-47.726	1.176	0.06549	0.02112	0.55463	0.82919	21.0	13111	100
2025-5-25 10:41:15.808	WT901BLE68(801231B9234C)	-0.050	0.736	0.499	2.625	-7.507	13.184	53.60	1.24	164.11	9.310	-47.726	1.176	0.06549	0.02112	0.55463	0.82919	21.0	13111	100
2025-5-25 10:41:15.808	WT901BLE68(801231B9234C)	-0.061	0.741	0.523	8.972	-14.771	13.916	53.79	0.86	163.97	9.310	-47.726	1.176	0.06549	0.02112	0.55463	0.82919	21.0	13111	100
2025-5-25 10:41:15.808	WT901BLE68(801231B9234C)	-0.067	0.757	0.552	14.709	-25.452	15.259	54.09	0.38	163.70	9.310	-47.726	1.176	0.06549	0.02112	0.55463	0.82919	21.0	13111	100
2025-5-25 10:41:15.808	WT901BLE68(801231B9234C)	-0.049	0.762	0.576	19.043	-35.522	17.151	54.47	-0.24	163.32	9.310	-47.726	1.176	0.06549	0.02112	0.55463	0.82919	21.0	13111	100
2025-5-25 10:41:15.809	WT901BLE68(801231B9234C)	-0.020	0.778	0.595	22.949	-44.861	20.203	54.92	-1.00	162.84	9.310	-47.726	1.176	0.06549	0.02112	0.55463	0.82919	21.0	13111	100
2025-5-25 10:41:15.809	WT901BLE68(801231B9234C)	-0.015	0.781	0.608	24.902	-51.147	21.851	55.43	-1.87	162.28	9.310	-47.726	1.176	0.06549	0.02112	0.55463	0.82919	21.0	13111	100
2025-5-25 10:41:15.809	WT901BLE68(801231B9234C)	0.013	0.765	0.642	24.658	-58.044	21.240	55.94	-2.79	161.64	9.310	-47.726	1.176	0.06549	0.02112	0.55463	0.82919	21.0	13111	100
2025-5-25 10:41:15.809	WT901BLE68(801231B9234C)	0.066	0.765	0.665	23.743	-64.209	19.714	56.44	-3.75	160.88	9.310	-47.726	1.176	0.06549	0.02112	0.55463	0.82919	21.0	13111	100
2025-5-25 10:41:15.835	WT901BLE68(801231B9234C)	0.109	0.758	0.661	22.034	-65.002	17.273	56.91	-4.70	160.05	9.310	-47.726	1.176	0.06549	0.02112	0.55463	0.82919	21.0	13111	100
2025-5-25 10:41:15.835	WT901BLE68(801231B9234C)	0.133	0.777	0.638	19.836	-58.350	14.709	57.34	-5.56	159.27	9.310	-47.726	1.176	0.06549	0.02112	0.55463	0.82919	21.0	13111	100
2025-5-25 10:41:15.863	WT901BLE68(801231B9234C)	0.134	0.809	0.614	16.541	-46.753	12.085	57.70	-6.27	158.62	5.390	-47.628	-3.822	0.06549	0.02112	0.55463	0.82919	21.0	13111	100
2025-5-25 10:41:15.864	WT901BLE68(801231B9234C)	0.130	0.842	0.598	11.902	-34.546	9.277	57.97	-6.81	158.14	5.390	-47.628	-3.822	0.06549	0.02112	0.55463	0.82919	21.0	13111	100
2025-5-25 10:41:15.898	WT901BLE68(801231B9234C)	0.107	0.864	0.581	6.348	-23.926	6.104	58.12	-7.18	157.82	5.390	-47.628	-3.822	0.06549	0.02112	0.55463	0.82919	21.0	13111	100
2025-5-25 10:41:15.898	WT901BLE68(801231B9234C)	0.095	0.858	0.571	1.404	-17.395	2.747	58.16	-7.41	157.61	5.390	-47.628	-3.822	0.06549	0.02112	0.55463	0.82919	21.0	13111	100
2025-5-25 10:41:15.954	WT901BLE68(801231B9234C)	0.086	0.844	0.553	-0.305	-14.648	-1.099	58.13	-7.53	157.42	5.390	-47.628	-3.822	0.06549	0.02112	0.55463	0.82919	21.0	13111	100
2025-5-25 10:41:15.955	WT901BLE68(801231B9234C)	0.083	0.828	0.528	-0.549	-13.977	-5.737	58.11	-7.58	157.22	5.390	-47.628	-3.822	0.06549	0.02112	0.55463	0.82919	21.0	13111	100
2025-5-25 10:41:15.985	WT901BLE68(801231B9234C)	0.072	0.813	0.509	0.183	-13.672	-10.498	58.11	-7.53	156.97	5.390	-47.628	-3.822	0.06549	0.02112	0.55463	0.82919	21.0	13111	100
2025-5-25 10:41:15.986	WT901BLE68(801231B9234C)	0.052	0.800	0.488	1.526	-13.550	-15.381	58.15	-7.40	156.68	5.390	-47.628	-3.822	0.06549	0.02112	0.55463	0.82919	21.0	13111	100
2025-5-25 10:41:16.15	WT901BLE68(801231B9234C)	0.050	0.805	0.483	3.479	-15.137	-20.203	58.23	-7.20	156.32	5.390	-47.628	-3.822	0.06549	0.02112	0.55463	0.82919	21.0	13111	100
2025-5-25 10:41:16.15	WT901BLE68(801231B9234C)	0.063	0.824	0.476	5.920	-19.104	-22.339	58.38	-6.97	155.87	5.390	-47.628	-3.822	0.06549	0.02112	0.55463	0.82919	21.0	13111	100
2025-5-25 10:41:16.74	WT901BLE68(801231B9234C)	0.073	0.827	0.468	8.423	-22.095	-22.095	58.58	-6.77	155.36	5.390	-47.628	-3.822	0.15652	0.15994	0.46976	0.85391	21.0	13111	100
2025-5-25 10:41:16.74	WT901BLE68(801231B9234C)	0.074	0.805	0.456	10.925	-23.621	-20.325	58.84	-6.61	154.83	5.390	-47.628	-3.822	0.15652	0.15994	0.46976	0.85391	21.0	13111	100
2025-5-25 10:41:16.103	WT901BLE68(801231B9234C)	0.067	0.795	0.447	14.160	-26.062	-18.921	59.16	-6.49	154.28	5.390	-47.628	-3.822	0.15652	0.15994	0.46976	0.85391	21.0	13111	100
2025-5-25 10:41:16.103	WT901BLE68(801231B9234C)	0.057	0.804	0.438	16.663	-29.053	-17.029	59.54	-6.43	153.68	5.390	-47.628	-3.822	0.15652	0.15994	0.46976	0.85391	21.0	13111	100
2025-5-25 10:41:16.134	WT901BLE68(801231B9234C)	0.057	0.810	0.434	17.944	-33.081	-15.381	59.96	-6.43	153.05	5.390	-47.628	-3.822	0.15652	0.15994	0.46976	0.85391	21.0	13111	100
2025-5-25 10:41:16.134	WT901BLE68(801231B9234C)	0.068	0.816	0.429	18.738	-38.330	-15.076	60.41	-6.49	152.34	5.390	-47.628	-3.822	0.15652	0.15994	0.46976	0.85391	21.0	13111	100
2025-5-25 10:41:16.196	WT901BLE68(801231B9234C)	0.081	0.826	0.410	19.714	-41.809	-16.296	60.90	-6.57	151.54	5.390	-47.628	-3.822	0.15652	0.15994	0.46976	0.85391	21.0	13111	100
2025-5-25 10:41:16.197	WT901BLE68(801231B9234C)	0.107	0.850	0.402	19.653	-42.053	-18.311	61.40	-6.62	150.70	5.390	-47.628	-3.822	0.15652	0.15994	0.46976	0.85391	21.0	13111	100
2025-5-25 10:41:16.224	WT901BLE68(801231B9234C)	0.115	0.861	0.392	18.982	-40.283	-20.325	61.89	-6.63	149.86	5.390	-47.628	-3.822	0.15652	0.15994	0.46976	0.85391	21.0	13111	100
2025-5-25 10:41:16.225	WT901BLE68(801231B9234C)	0.140	0.844	0.381	17.639	-35.156	-21.423	62.35	-6.57	149.06	5.390	-47.628	-3.822	0.15652	0.15994	0.46976	0.85391	21.0	13111	100
2025-5-25 10:41:16.284	WT901BLE68(801231B9234C)	0.146	0.832	0.377	17.700	-26.611	-21.606	62.79	-6.44	148.37	7.154	-47.726	-0.196	0.15652	0.15994	0.46976	0.85391	21.0	13111	100
2025-5-25 10:41:16.284	WT901BLE68(801231B9234C)	0.115	0.818	0.364	16.907	-15.503	-20.264	63.20	-6.22	147.87	7.154	-47.726	-0.196	0.15652	0.15994	0.46976	0.85391	21.0	13111	100
2025-5-25 10:41:16.314	WT901BLE68(801231B9234C)	0.093	0.809	0.363	16.907	-8.179	-18.799	63.57	-5.96	147.54	7.154	-47.726	-0.196	0.15652	0.15994	0.46976	0.85391	21.0	13111	100
2025-5-25 10:41:16.314	WT901BLE68(801231B9234C)	0.064	0.833	0.367	18.066	-7.385	-16.846	63.96	-5.71	147.26	7.154	-47.726	-0.196	0.15652	0.15994	0.46976	0.85391	21.0	13111	100
2025-5-25 10:41:16.344	WT901BLE68(801231B9234C)	0.058	0.863	0.364	17.761	-12.451	-14.893	64.35	-5.52	146.96	7.154	-47.726	-0.196	0.15652	0.15994	0.46976	0.85391	21.0	13111	100
2025-5-25 10:41:16.344	WT901BLE68(801231B9234C)	0.088	0.895	0.367	16.663	-20.569	-15.076	64.74	-5.39	146.54	7.154	-47.726	-0.196	0.15652	0.15994	0.46976	0.85391	21.0	13111	100
2025-5-25 10:41:16.405	WT901BLE68(801231B9234C)	0.125	0.930	0.356	15.564	-25.818	-17.334	65.13	-5.30	145.98	7.154	-47.726	-0.196	0.15652	0.15994	0.46976	0.85391	21.0	13111	100
2025-5-25 10:41:16.405	WT901BLE68(801231B9234C)	0.158	0.978	0.332	13.855	-23.865	-21.240	65.49	-5.14	145.37	7.154	-47.726	-0.196	0.15652	0.15994	0.46976	0.85391	21.0	13111	100
2025-5-25 10:41:16.434	WT901BLE68(801231B9234C)	0.173	1.012	0.309	10.437	-15.808	-24.902	65.80	-4.87	144.82	7.154	-47.726	-0.196	0.15652	0.15994	0.46976	0.85391	21.0	13111	100
2025-5-25 10:41:16.434	WT901BLE68(801231B9234C)	0.186	1.005	0.296	7.202	-4.761	-28.687	66.02	-4.45	144.40	7.154	-47.726	-0.196	0.23544	0.20081	0.51233	0.80103	21.0	13111	100
2025-5-25 10:41:16.464	WT901BLE68(801231B9234C)	0.193	1.012	0.289	6.104	6.348	-31.555	66.20	-3.91	144.15	7.154	-47.726	-0.196	0.23544	0.20081	0.51233	0.80103	21.0	13111	100
2025-5-25 10:41:16.464	WT901BLE68(801231B9234C)	0.180	1.009	0.282	4.517	16.968	-31.738	66.35	-3.26	144.06	7.154	-47.726	-0.196	0.23544	0.20081	0.51233	0.80103	21.0	13111	100
2025-5-25 10:41:16.524	WT901BLE68(801231B9234C)	0.158	0.982	0.277	4.211	25.024	-30.823	66.47	-2.58	144.12	7.154	-47.726	-0.196	0.23544	0.20081	0.51233	0.80103	21.0	13111	100
2025-5-25 10:41:16.524	WT901BLE68(801231B9234C)	0.141	0.970	0.287	4.517	28.992	-30.029	66.59	-1.87	144.28	7.154	-47.726	-0.196	0.23544	0.20081	0.51233	0.80103	21.0	13111	100
2025-5-25 10:41:16.554	WT901BLE68(801231B9234C)	0.105	0.966	0.280	6.775	28.076	-27.283	66.75	-1.21	144.45	7.154	-47.726	-0.196	0.23544	0.20081	0.51233	0.80103	21.0	13111	100
2025-5-25 10:41:16.554	WT901BLE68(801231B9234C)	0.087	0.917	0.245	8.240	21.545	-24.353	66.95	-0.65	144.57	7.154	-47.726	-0.196	0.23544	0.20081	0.51233	0.80103	21.0	13111	100
2025-5-25 10:41:16.584	WT901BLE68(801231B9234C)	0.095	0.896	0.239	9.338	11.108	-27.344	67.18	-0.15	144.51	7.154	-47.726	-0.196	0.23544	0.20081	0.51233	0.80103	21.0	13111	100
2025-5-25 10:41:16.584	WT901BLE68(801231B9234C)	0.105	0.859	0.278	10.681	11.597	-16.968	67.45	0.22	144.38	7.154	-47.726	-0.196	0.23544	0.20081	0.51233	0.80103	21.0	13111	100
2025-5-25 10:41:16.644	WT901BLE68(801231B9234C)	0.049	0.950	0.261	10.925	20.569	-13.306	67.72	0.54	144.44	7.154	-47.726	-0.196	0.23544	0.20081	0.51233	0.80103	21.0	13111	100
2025-5-25 10:41:16.645	WT901BLE68(801231B9234C)	0.024	0.976	0.263	13.855	29.480	-4.883	68.03	0.79	144.72	7.154	-47.726	-0.196	0.23544	0.20081	0.51233	0.80103	21.0	13111	100
2025-5-25 10:41:16.674	WT901BLE68(801231B9234C)	0.021	0.953	0.250	16.052	30.396	2.197	68.38	0.93	145.13	14.602	-46.648	4.900	0.23544	0.20081	0.51233	0.80103	21.0	13111	100
2025-5-25 10:41:16.674	WT901BLE68(801231B9234C)	0.002	0.913	0.252	17.822	31.372	4.272	68.78	1.01	145.60	14.602	-46.648	4.900	0.23544	0.20081	0.51233	0.80103	21.0	13111	100
2025-5-25 10:41:16.704	WT901BLE68(801231B9234C)	-0.024	0.903	0.251	20.203	34.668	2.075	69.24	1.12	146.12	14.602	-46.648	4.900	0.23544	0.20081	0.51233	0.80103	21.0	13111	100
2025-5-25 10:41:16.704	WT901BLE68(801231B9234C)	-0.034	0.904	0.250	23.621	35.156	0.000	69.74	1.29	146.67	14.602	-46.648	4.900	0.23544	0.20081	0.51233	0.80103	21.0	13111	100
2025-5-25 10:41:16.764	WT901BLE68(801231B9234C)	-0.040	0.927	0.255	27.344	29.846	-1.343	70.31	1.47	147.16	14.602	-46.648	4.900	0.23544	0.20081	0.51233	0.80103	21.0	13111	100
2025-5-25 10:41:16.764	WT901BLE68(801231B9234C)	-0.046	0.938	0.250	29.663	23.315	-1.709	70.93	1.63	147.55	14.602	-46.648	4.900	0.23544	0.20081	0.51233	0.80103	21.0	13111	100
2025-5-25 10:41:16.798	WT901BLE68(801231B9234C)	-0.037	0.948	0.244	30.823	16.479	-2.014	71.58	1.76	147.82	14.602	-46.648	4.900	0.23544	0.20081	0.51233	0.80103	21.0	13111	100
2025-5-25 10:41:16.798	WT901BLE68(801231B9234C)	-0.026	0.959	0.229	30.884	13.123	-1.404	72.22	1.86	148.01	14.602	-46.648	4.900	0.23544	0.20081	0.51233	0.80103	21.0	13111	100
2025-5-25 10:41:16.825	WT901BLE68(801231B9234C)	-0.028	0.954	0.232	29.968	16.357	-0.488	72.86	1.94	148.24	14.602	-46.648	4.900	0.23544	0.20081	0.51233	0.80103	21.0	13111	100
2025-5-25 10:41:16.826	WT901BLE68(801231B9234C)	-0.051	0.972	0.237	29.175	23.743	-0.366	73.48	2.05	148.60	14.602	-46.648	4.900	0.23544	0.20081	0.51233	0.80103	21.0	13111	100
2025-5-25 10:41:16.885	WT901BLE68(801231B9234C)	-0.076	1.004	0.245	28.442	30.273	0.061	74.08	2.19	149.10	14.602	-46.648	4.900	0.21725	0.14832	0.59082	0.76263	21.0	13111	100
2025-5-25 10:41:16.885	WT901BLE68(801231B9234C)	-0.090	1.018	0.246	27.161	32.654	0.244	74.66	2.35	149.69	14.602	-46.648	4.900	0.21725	0.14832	0.59082	0.76263	21.0	13111	100
2025-5-25 10:41:16.914	WT901BLE68(801231B9234C)	-0.095	1.020	0.244	25.696	31.982	-0.671	75.21	2.51	150.29	14.602	-46.648	4.900	0.21725	0.14832	0.59082	0.76263	21.0	13111	100
2025-5-25 10:41:16.914	WT901BLE68(801231B9234C)	-0.105	1.022	0.233	24.353	31.189	-2.808	75.73	2.70	150.89	14.602	-46.648	4.900	0.21725	0.14832	0.59082	0.76263	21.0	13111	100
2025-5-25 10:41:16.944	WT901BLE68(801231B9234C)	-0.112	1.018	0.225	23.132	29.785	-6.348	76.21	2.95	151.45	14.602	-46.648	4.900	0.21725	0.14832	0.59082	0.76263	21.0	13111	100
2025-5-25 10:41:16.944	WT901BLE68(801231B9234C)	-0.129	1.028	0.216	23.193	26.855	-9.705	76.70	3.25	151.97	14.602	-46.648	4.900	0.21725	0.14832	0.59082	0.76263	21.0	13111	100
2025-5-25 10:41:17.3	WT901BLE68(801231B9234C)	-0.140	1.037	0.195	24.292	22.705	-12.146	77.18	3.59	152.41	14.602	-46.648	4.900	0.21725	0.14832	0.59082	0.76263	21.0	13111	100
2025-5-25 10:41:17.3	WT901BLE68(801231B9234C)	-0.152	1.053	0.186	25.940	20.752	-12.146	77.70	3.94	152.79	14.602	-46.648	4.900	0.21725	0.14832	0.59082	0.76263	21.0	13111	100
2025-5-25 10:41:17.35	WT901BLE68(801231B9234C)	-0.172	1.105	0.192	28.687	19.226	-12.024	78.27	4.27	153.17	14.602	-46.648	4.900	0.21725	0.14832	0.59082	0.76263	21.0	13111	100
2025-5-25 10:41:17.35	WT901BLE68(801231B9234C)	-0.178	1.208	0.201	29.968	16.235	-11.719	78.87	4.59	153.50	14.602	-46.648	4.900	0.21725	0.14832	0.59082	0.76263	21.0	13111	100
2025-5-25 10:41:17.65	WT901BLE68(801231B9234C)	-0.167	1.250	0.203	28.015	11.230	-12.634	79.45	4.89	153.75	14.602	-46.648	4.900	0.21725	0.14832	0.59082	0.76263	21.0	13111	100
2025-5-25 10:41:17.65	WT901BLE68(801231B9234C)	-0.170	1.161	0.191	25.391	7.568	-19.775	79.97	5.28	153.90	14.994	-45.276	15.484	0.21725	0.14832	0.59082	0.76263	21.0	13111	100
2025-5-25 10:41:17.154	WT901BLE68(801231B9234C)	-0.169	1.107	0.191	23.499	5.798	-29.480	80.44	5.83	153.98	14.994	-45.276	15.484	0.21725	0.14832	0.59082	0.76263	21.0	13111	100
2025-5-25 10:41:17.155	WT901BLE68(801231B9234C)	-0.167	1.071	0.199	22.522	1.831	-39.612	80.88	6.56	153.99	14.994	-45.276	15.484	0.21725	0.14832	0.59082	0.76263	21.0	13111	100
2025-5-25 10:41:17.155	WT901BLE68(801231B9234C)	-0.166	1.070	0.190	24.414	-4.578	-48.157	81.31	7.45	153.86	14.994	-45.276	15.484	0.21725	0.14832	0.59082	0.76263	21.0	13111	100
2025-5-25 10:41:17.155	WT901BLE68(801231B9234C)	-0.149	1.066	0.181	22.644	-15.381	-53.894	81.68	8.48	153.53	14.994	-45.276	15.484	0.21725	0.14832	0.59082	0.76263	21.0	13111	100
2025-5-25 10:41:17.184	WT901BLE68(801231B9234C)	-0.142	1.038	0.171	20.325	-18.372	-55.603	82.00	9.50	153.08	14.994	-45.276	15.484	0.21725	0.14832	0.59082	0.76263	21.0	13111	100
2025-5-25 10:41:17.184	WT901BLE68(801231B9234C)	-0.129	1.032	0.185	17.944	-19.470	-55.237	82.26	10.54	152.58	14.994	-45.276	15.484	0.21725	0.14832	0.59082	0.76263	21.0	13111	100
2025-5-25 10:41:17.244	WT901BLE68(801231B9234C)	-0.122	1.041	0.178	15.320	-17.029	-52.490	82.46	11.52	152.09	14.994	-45.276	15.484	0.21725	0.14832	0.59082	0.76263	21.0	13111	100
2025-5-25 10:41:17.244	WT901BLE68(801231B9234C)	-0.144	1.017	0.170	12.573	-8.484	-49.011	82.62	12.45	151.72	14.994	-45.276	15.484	0.21725	0.14832	0.59082	0.76263	21.0	13111	100
2025-5-25 10:41:17.274	WT901BLE68(801231B9234C)	-0.131	0.996	0.187	10.193	-2.197	-44.006	82.75	13.30	151.52	14.994	-45.276	15.484	0.25415	0.08206	0.66046	0.70169	21.0	13111	100
2025-5-25 10:41:17.274	WT901BLE68(801231B9234C)	-0.174	1.007	0.183	9.888	3.357	-34.851	82.90	13.99	151.42	14.994	-45.276	15.484	0.25415	0.08206	0.66046	0.70169	21.0	13111	100
2025-5-25 10:41:17.303	WT901BLE68(801231B9234C)	-0.182	1.001	0.187	7.935	3.906	-30.762	83.03	14.57	151.40	14.994	-45.276	15.484	0.25415	0.08206	0.66046	0.70169	21.0	13111	100
2025-5-25 10:41:17.303	WT901BLE68(801231B9234C)	-0.189	0.953	0.182	6.104	-0.671	-24.231	83.11	15.02	151.32	14.994	-45.276	15.484	0.25415	0.08206	0.66046	0.70169	21.0	13111	100
2025-5-25 10:41:17.364	WT901BLE68(801231B9234C)	-0.187	0.925	0.182	4.822	-7.202	-19.897	83.12	15.37	151.13	14.994	-45.276	15.484	0.25415	0.08206	0.66046	0.70169	21.0	13111	100
2025-5-25 10:41:17.364	WT901BLE68(801231B9234C)	-0.176	0.943	0.181	3.113	-12.878	-14.465	83.08	15.61	150.83	14.994	-45.276	15.484	0.25415	0.08206	0.66046	0.70169	21.0	13111	100
2025-5-25 10:41:17.397	WT901BLE68(801231B9234C)	-0.163	0.960	0.183	-0.122	-15.015	-9.766	82.96	15.73	150.46	14.994	-45.276	15.484	0.25415	0.08206	0.66046	0.70169	21.0	13111	100
2025-5-25 10:41:17.397	WT901BLE68(801231B9234C)	-0.167	0.944	0.175	-4.456	-12.512	-5.432	82.78	15.77	150.12	14.994	-45.276	15.484	0.25415	0.08206	0.66046	0.70169	21.0	13111	100
2025-5-25 10:41:17.425	WT901BLE68(801231B9234C)	-0.175	0.928	0.166	-8.118	-8.362	-1.953	82.54	15.74	149.86	14.994	-45.276	15.484	0.25415	0.08206	0.66046	0.70169	21.0	13111	100
2025-5-25 10:41:17.425	WT901BLE68(801231B9234C)	-0.185	0.944	0.169	-11.475	-3.296	1.709	82.27	15.66	149.71	14.994	-45.276	15.484	0.25415	0.08206	0.66046	0.70169	21.0	13111	100
2025-5-25 10:41:17.484	WT901BLE68(801231B9234C)	-0.180	0.983	0.161	-14.587	0.000	5.554	81.95	15.51	149.65	24.402	-40.768	19.208	0.25415	0.08206	0.66046	0.70169	21.0	13111	100
2025-5-25 10:41:17.484	WT901BLE68(801231B9234C)	-0.189	1.009	0.146	-16.846	6.470	10.864	81.62	15.29	149.70	24.402	-40.768	19.208	0.25415	0.08206	0.66046	0.70169	21.0	13111	100
2025-5-25 10:41:17.514	WT901BLE68(801231B9234C)	-0.211	0.991	0.139	-18.616	14.587	15.625	81.31	14.99	149.92	24.402	-40.768	19.208	0.25415	0.08206	0.66046	0.70169	21.0	13111	100
2025-5-25 10:41:17.514	WT901BLE68(801231B9234C)	-0.229	0.984	0.142	-19.104	18.860	18.738	81.01	14.64	150.28	24.402	-40.768	19.208	0.25415	0.08206	0.66046	0.70169	21.0	13111	100
2025-5-25 10:41:17.544	WT901BLE68(801231B9234C)	-0.246	1.017	0.152	-19.592	19.104	20.020	80.73	14.28	150.68	24.402	-40.768	19.208	0.25415	0.08206	0.66046	0.70169	21.0	13111	100
2025-5-25 10:41:17.544	WT901BLE68(801231B9234C)	-0.245	1.020	0.162	-21.179	15.686	18.799	80.41	13.91	151.04	24.402	-40.768	19.208	0.25415	0.08206	0.66046	0.70169	21.0	13111	100
2025-5-25 10:41:17.604	WT901BLE68(801231B9234C)	-0.246	1.023	0.160	-22.034	9.827	15.259	80.05	13.60	151.30	24.402	-40.768	19.208	0.25415	0.08206	0.66046	0.70169	21.0	13111	100
2025-5-25 10:41:17.604	WT901BLE68(801231B9234C)	-0.232	1.021	0.160	-24.109	5.249	10.071	79.63	13.36	151.45	24.402	-40.768	19.208	0.25415	0.08206	0.66046	0.70169	21.0	13111	100
2025-5-25 10:41:17.635	WT901BLE68(801231B9234C)	-0.214	0.992	0.146	-25.269	1.709	4.211	79.17	13.24	151.49	24.402	-40.768	19.208	0.25415	0.08206	0.66046	0.70169	21.0	13111	100
2025-5-25 10:41:17.635	WT901BLE68(801231B9234C)	-0.220	0.964	0.132	-25.757	1.343	-1.526	78.68	13.23	151.50	24.402	-40.768	19.208	0.25415	0.08206	0.66046	0.70169	21.0	13111	100
2025-5-25 10:41:17.698	WT901BLE68(801231B9234C)	-0.232	0.937	0.137	-25.513	1.160	-7.446	78.20	13.33	151.48	24.402	-40.768	19.208	0.25888	0.07040	0.62997	0.72873	21.0	13111	100
2025-5-25 10:41:17.698	WT901BLE68(801231B9234C)	-0.231	0.931	0.156	-23.987	-1.953	-11.963	77.73	13.53	151.40	24.402	-40.768	19.208	0.25888	0.07040	0.62997	0.72873	21.0	13111	100
2025-5-25 10:41:17.724	WT901BLE68(801231B9234C)	-0.227	0.960	0.155	-23.071	-6.714	-13.367	77.27	13.76	151.22	24.402	-40.768	19.208	0.25888	0.07040	0.62997	0.72873	21.0	13111	100
2025-5-25 10:41:17.725	WT901BLE68(801231B9234C)	-0.218	0.933	0.148	-23.010	-8.240	-12.634	76.80	13.97	150.99	24.402	-40.768	19.208	0.25888	0.07040	0.62997	0.72873	21.0	13111	100
2025-5-25 10:41:17.784	WT901BLE68(801231B9234C)	-0.213	0.910	0.144	-21.912	-9.827	-11.414	76.35	14.16	150.73	24.402	-40.768	19.208	0.25888	0.07040	0.62997	0.72873	21.0	13111	100
2025-5-25 10:41:17.784	WT901BLE68(801231B9234C)	-0.211	0.890	0.144	-20.508	-9.949	-9.094	75.92	14.30	150.46	24.402	-40.768	19.208	0.25888	0.07040	0.62997	0.72873	21.0	13111	100
2025-5-25 10:41:17.844	WT901BLE68(801231B9234C)	-0.215	0.873	0.145	-18.921	-10.010	-5.981	75.53	14.38	150.19	24.402	-40.768	19.208	0.25888	0.07040	0.62997	0.72873	21.0	13111	100
2025-5-25 10:41:17.844	WT901BLE68(801231B9234C)	-0.225	0.864	0.146	-16.663	-8.972	-2.197	75.20	14.40	149.95	24.402	-40.768	19.208	0.25888	0.07040	0.62997	0.72873	21.0	13111	100
2025-5-25 10:41:17.845	WT901BLE68(801231B9234C)	-0.229	0.863	0.150	-14.648	-8.484	2.014	74.91	14.34	149.75	24.402	-40.768	19.208	0.25888	0.07040	0.62997	0.72873	21.0	13111	100
2025-5-25 10:41:17.845	WT901BLE68(801231B9234C)	-0.227	0.866	0.161	-12.756	-8.667	5.859	74.67	14.21	149.57	24.402	-40.768	19.208	0.25888	0.07040	0.62997	0.72873	21.0	13111	100
2025-5-25 10:41:17.874	WT901BLE68(801231B9234C)	-0.222	0.874	0.167	-11.353	-7.935	8.423	74.47	14.01	149.41	24.402	-40.768	19.208	0.25888	0.07040	0.62997	0.72873	21.0	13111	100
2025-5-25 10:41:17.874	WT901BLE68(801231B9234C)	-0.230	0.876	0.166	-9.827	-5.554	10.376	74.30	13.80	149.31	23.618	-42.826	13.524	0.25888	0.07040	0.62997	0.72873	21.0	13111	100
2025-5-25 10:41:17.934	WT901BLE68(801231B9234C)	-0.234	0.877	0.169	-7.874	-3.540	11.536	74.19	13.57	149.26	23.618	-42.826	13.524	0.25888	0.07040	0.62997	0.72873	21.0	13111	100
2025-5-25 10:41:17.934	WT901BLE68(801231B9234C)	-0.250	0.890	0.182	-5.920	-3.723	11.414	74.12	13.34	149.23	23.618	-42.826	13.524	0.25888	0.07040	0.62997	0.72873	21.0	13111	100
2025-5-25 10:41:17.964	WT901BLE68(801231B9234C)	-0.239	0.892	0.187	-3.174	-6.531	11.475	74.08	13.11	149.16	23.618	-42.826	13.524	0.25888	0.07040	0.62997	0.72873	21.0	13111	100
2025-5-25 10:41:17.964	WT901BLE68(801231B9234C)	-0.219	0.906	0.225	-2.136	-8.789	10.620	74.07	12.88	149.06	23.618	-42.826	13.524	0.25888	0.07040	0.62997	0.72873	21.0	13111	100
2025-5-25 10:41:17.997	WT901BLE68(801231B9234C)	-0.197	0.901	0.239	-3.174	-9.277	7.507	74.03	12.68	148.92	23.618	-42.826	13.524	0.25888	0.07040	0.62997	0.72873	21.0	13111	100
2025-5-25 10:41:17.997	WT901BLE68(801231B9234C)	-0.188	0.899	0.242	-3.662	-4.395	3.479	74.00	12.61	148.83	23.618	-42.826	13.524	0.25888	0.07040	0.62997	0.72873	21.0	13111	100
2025-5-25 10:41:18.54	WT901BLE68(801231B9234C)	-0.196	0.896	0.240	-6.775	3.479	2.686	73.93	12.56	148.85	23.618	-42.826	13.524	0.25888	0.07040	0.62997	0.72873	21.0	13111	100
2025-5-25 10:41:18.54	WT901BLE68(801231B9234C)	-0.199	0.911	0.254	-8.179	9.583	2.380	73.83	12.57	149.01	23.618	-42.826	13.524	0.25888	0.07040	0.62997	0.72873	21.0	13111	100
2025-5-25 10:41:18.114	WT901BLE68(801231B9234C)	-0.208	0.947	0.274	-9.460	15.137	2.380	73.73	12.61	149.28	23.618	-42.826	13.524	0.27063	0.07779	0.60095	0.74796	21.0	13111	100
2025-5-25 10:41:18.114	WT901BLE68(801231B9234C)	-0.214	0.964	0.292	-11.047	18.860	2.625	73.62	12.66	149.62	23.618	-42.826	13.524	0.27063	0.07779	0.60095	0.74796	21.0	13111	100
2025-5-25 10:41:18.115	WT901BLE68(801231B9234C)	-0.207	0.936	0.293	-12.329	21.912	2.319	73.49	12.73	150.03	23.618	-42.826	13.524	0.27063	0.07779	0.60095	0.74796	21.0	13111	100
2025-5-25 10:41:18.115	WT901BLE68(801231B9234C)	-0.219	0.895	0.293	-13.794	24.109	1.465	73.33	12.83	150.49	23.618	-42.826	13.524	0.27063	0.07779	0.60095	0.74796	21.0	13111	100
2025-5-25 10:41:18.173	WT901BLE68(801231B9234C)	-0.233	0.881	0.310	-15.076	23.499	0.122	73.15	12.95	150.96	23.618	-42.826	13.524	0.27063	0.07779	0.60095	0.74796	21.0	13111	100
2025-5-25 10:41:18.174	WT901BLE68(801231B9234C)	-0.221	0.887	0.316	-15.076	19.104	-1.953	72.93	13.09	151.35	23.618	-42.826	13.524	0.27063	0.07779	0.60095	0.74796	21.0	13111	100
2025-5-25 10:41:18.203	WT901BLE68(801231B9234C)	-0.199	0.915	0.315	-15.930	15.015	-2.991	72.69	13.24	151.65	23.618	-42.826	13.524	0.27063	0.07779	0.60095	0.74796	21.0	13111	100
2025-5-25 10:41:18.203	WT901BLE68(801231B9234C)	-0.188	0.913	0.308	-18.616	14.709	-3.479	72.39	13.39	151.91	23.618	-42.826	13.524	0.27063	0.07779	0.60095	0.74796	21.0	13111	100
2025-5-25 10:41:18.264	WT901BLE68(801231B9234C)	-0.170	0.887	0.296	-20.996	19.104	-5.127	72.05	13.57	152.20	23.618	-42.826	13.524	0.27063	0.07779	0.60095	0.74796	21.0	13111	100
2025-5-25 10:41:18.264	WT901BLE68(801231B9234C)	-0.169	0.901	0.292	-22.705	27.161	-8.118	71.70	13.84	152.61	23.618	-42.826	13.524	0.27063	0.07779	0.60095	0.74796	21.0	13111	100
2025-5-25 10:41:18.324	WT901BLE68(801231B9234C)	-0.191	0.920	0.287	-24.536	37.476	-9.949	71.36	14.21	153.17	22.344	-43.806	10.976	0.27063	0.07779	0.60095	0.74796	21.0	13111	100
2025-5-25 10:41:18.324	WT901BLE68(801231B9234C)	-0.215	0.921	0.283	-26.123	45.227	-10.315	71.04	14.64	153.89	22.344	-43.806	10.976	0.27063	0.07779	0.60095	0.74796	21.0	13111	100
2025-5-25 10:41:18.325	WT901BLE68(801231B9234C)	-0.222	0.906	0.272	-26.245	47.485	-9.827	70.74	15.10	154.68	22.344	-43.806	10.976	0.27063	0.07779	0.60095	0.74796	21.0	13111	100
2025-5-25 10:41:18.325	WT901BLE68(801231B9234C)	-0.221	0.896	0.260	-25.208	46.631	-9.399	70.46	15.55	155.46	22.344	-43.806	10.976	0.27063	0.07779	0.60095	0.74796	21.0	13111	100
2025-5-25 10:41:18.564	WT901BLE68(801231B9234C)	-0.224	0.874	0.250	-23.560	45.349	-7.263	70.22	15.97	156.22	22.344	-43.806	10.976	0.27063	0.07779	0.60095	0.74796	21.0	13111	100
2025-5-25 10:41:18.565	WT901BLE68(801231B9234C)	-0.231	0.856	0.243	-20.996	44.128	-5.310	70.03	16.34	156.97	22.344	-43.806	10.976	0.27063	0.07779	0.60095	0.74796	21.0	13111	100
2025-5-25 10:41:18.623	WT901BLE68(801231B9234C)	-0.246	0.856	0.238	-17.639	42.297	-1.343	69.91	16.65	157.70	22.344	-43.806	10.976	0.27063	0.07779	0.60095	0.74796	21.0	13111	100
2025-5-25 10:41:18.624	WT901BLE68(801231B9234C)	-0.252	0.862	0.234	-14.404	39.673	3.601	69.86	16.85	158.41	22.344	-43.806	10.976	0.27063	0.07779	0.60095	0.74796	21.0	13111	100
2025-5-25 10:41:18.626	WT901BLE68(801231B9234C)	-0.250	0.881	0.221	-10.376	38.208	9.949	69.88	16.94	159.12	22.344	-43.806	10.976	0.27063	0.07779	0.60095	0.74796	21.0	13111	100
2025-5-25 10:41:18.626	WT901BLE68(801231B9234C)	-0.260	0.881	0.217	-7.324	38.513	15.869	70.00	16.90	159.86	22.344	-43.806	10.976	0.27063	0.07779	0.60095	0.74796	21.0	13111	100
2025-5-25 10:41:18.626	WT901BLE68(801231B9234C)	-0.271	0.867	0.214	-3.357	38.513	19.958	70.19	16.78	160.65	22.344	-43.806	10.976	0.27063	0.07779	0.60095	0.74796	21.0	13111	100
2025-5-25 10:41:18.626	WT901BLE68(801231B9234C)	-0.274	0.899	0.205	1.099	37.659	24.780	70.48	16.58	161.44	22.344	-43.806	10.976	0.27063	0.07779	0.60095	0.74796	21.0	13111	100
2025-5-25 10:41:18.627	WT901BLE68(801231B9234C)	-0.287	0.920	0.205	5.127	38.208	30.273	70.85	16.27	162.28	22.344	-43.806	10.976	0.27063	0.07779	0.60095	0.74796	21.0	13111	100
2025-5-25 10:41:18.627	WT901BLE68(801231B9234C)	-0.308	0.936	0.204	9.338	36.804	35.095	71.31	15.87	163.14	22.344	-43.806	10.976	0.27063	0.07779	0.60095	0.74796	21.0	13111	100
2025-5-25 10:41:18.627	WT901BLE68(801231B9234C)	-0.331	0.961	0.208	13.367	33.813	40.588	71.84	15.36	164.00	22.344	-43.806	10.976	0.27063	0.07779	0.60095	0.74796	21.0	13111	100
2025-5-25 10:41:18.627	WT901BLE68(801231B9234C)	-0.356	0.967	0.219	17.517	27.283	45.471	72.42	14.72	164.79	22.344	-43.806	10.976	0.27063	0.07779	0.60095	0.74796	21.0	13111	100
2025-5-25 10:41:18.628	WT901BLE68(801231B9234C)	-0.375	0.986	0.235	21.545	15.015	49.194	73.02	13.95	165.42	22.344	-43.806	10.976	0.27063	0.07779	0.60095	0.74796	21.0	13111	100
2025-5-25 10:41:18.628	WT901BLE68(801231B9234C)	-0.375	0.998	0.256	24.475	0.061	51.453	73.61	13.06	165.81	22.344	-43.806	10.976	0.16302	-0.01218	0.60538	0.77890	21.0	13111	100
2025-5-25 10:41:18.684	WT901BLE68(801231B9234C)	-0.347	0.997	0.277	27.100	-15.015	50.659	74.17	12.09	165.92	22.344	-43.806	10.976	0.16302	-0.01218	0.60538	0.77890	21.0	13111	100
2025-5-25 10:41:18.684	WT901BLE68(801231B9234C)	-0.337	1.026	0.299	27.832	-24.475	48.706	74.71	11.12	165.81	22.344	-43.806	10.976	0.16302	-0.01218	0.60538	0.77890	21.0	13111	100
2025-5-25 10:41:18.685	WT901BLE68(801231B9234C)	-0.327	1.026	0.305	25.818	-28.748	44.128	75.18	10.18	165.57	22.344	-43.806	10.976	0.16302	-0.01218	0.60538	0.77890	21.0	13111	100
2025-5-25 10:41:18.685	WT901BLE68(801231B9234C)	-0.308	1.033	0.313	22.949	-31.677	35.767	75.58	9.38	165.27	15.484	-45.472	13.720	0.16302	-0.01218	0.60538	0.77890	21.0	13111	100
2025-5-25 10:41:18.714	WT901BLE68(801231B9234C)	-0.292	1.016	0.313	19.592	-32.227	27.527	75.90	8.73	164.89	15.484	-45.472	13.720	0.16302	-0.01218	0.60538	0.77890	21.0	13111	100
2025-5-25 10:41:18.714	WT901BLE68(801231B9234C)	-0.270	0.996	0.306	16.418	-30.518	17.273	76.15	8.29	164.50	15.484	-45.472	13.720	0.16302	-0.01218	0.60538	0.77890	21.0	13111	100
2025-5-25 10:41:18.774	WT901BLE68(801231B9234C)	-0.260	0.993	0.295	12.878	-26.978	7.507	76.32	8.05	164.13	15.484	-45.472	13.720	0.16302	-0.01218	0.60538	0.77890	21.0	13111	100
2025-5-25 10:41:18.774	WT901BLE68(801231B9234C)	-0.263	0.979	0.282	8.301	-21.606	-0.916	76.42	8.01	163.81	15.484	-45.472	13.720	0.16302	-0.01218	0.60538	0.77890	21.0	13111	100
2025-5-25 10:41:18.804	WT901BLE68(801231B9234C)	-0.259	0.976	0.273	4.333	-17.456	-8.972	76.43	8.14	163.55	15.484	-45.472	13.720	0.16302	-0.01218	0.60538	0.77890	21.0	13111	100
2025-5-25 10:41:18.804	WT901BLE68(801231B9234C)	-0.250	0.976	0.259	1.221	-15.198	-14.771	76.38	8.40	163.32	15.484	-45.472	13.720	0.16302	-0.01218	0.60538	0.77890	21.0	13111	100
2025-5-25 10:41:18.834	WT901BLE68(801231B9234C)	-0.242	0.971	0.236	-2.075	-12.756	-19.226	76.28	8.77	163.11	15.484	-45.472	13.720	0.16302	-0.01218	0.60538	0.77890	21.0	13111	100
2025-5-25 10:41:18.835	WT901BLE68(801231B9234C)	-0.235	0.941	0.223	-4.700	-9.705	-22.888	76.12	9.22	162.92	15.484	-45.472	13.720	0.16302	-0.01218	0.60538	0.77890	21.0	13111	100
2025-5-25 10:41:18.897	WT901BLE68(801231B9234C)	-0.232	0.925	0.210	-6.042	-6.592	-27.222	75.95	9.75	162.77	15.484	-45.472	13.720	0.16827	0.02832	0.61896	0.76660	21.0	13111	100
2025-5-25 10:41:18.897	WT901BLE68(801231B9234C)	-0.229	0.928	0.203	-7.263	-4.028	-30.457	75.76	10.37	162.65	15.484	-45.472	13.720	0.16827	0.02832	0.61896	0.76660	21.0	13111	100
2025-5-25 10:41:18.924	WT901BLE68(801231B9234C)	-0.225	0.911	0.171	-8.545	-1.892	-31.189	75.57	10.99	162.55	15.484	-45.472	13.720	0.16827	0.02832	0.61896	0.76660	21.0	13111	100
2025-5-25 10:41:18.924	WT901BLE68(801231B9234C)	-0.227	0.942	0.174	-7.446	0.854	-28.931	75.40	11.61	162.48	15.484	-45.472	13.720	0.16827	0.02832	0.61896	0.76660	21.0	13111	100
2025-5-25 10:41:18.954	WT901BLE68(801231B9234C)	-0.227	0.917	0.179	-8.118	0.977	-29.114	75.23	12.21	162.43	15.484	-45.472	13.720	0.16827	0.02832	0.61896	0.76660	21.0	13111	100
2025-5-25 10:41:18.954	WT901BLE68(801231B9234C)	-0.219	0.919	0.178	-7.080	0.916	-30.273	75.08	12.82	162.36	15.484	-45.472	13.720	0.16827	0.02832	0.61896	0.76660	21.0	13111	100
2025-5-25 10:41:19.14	WT901BLE68(801231B9234C)	-0.206	0.921	0.162	-6.531	0.610	-29.846	74.94	13.43	162.26	15.484	-45.472	13.720	0.16827	0.02832	0.61896	0.76660	21.0	13111	100
2025-5-25 10:41:19.14	WT901BLE68(801231B9234C)	-0.206	0.921	0.160	-5.554	2.319	-29.480	74.82	14.01	162.16	15.484	-45.472	13.720	0.16827	0.02832	0.61896	0.76660	21.0	13111	100
2025-5-25 10:41:19.134	WT901BLE68(801231B9234C)	-0.203	0.930	0.167	-4.089	3.540	-28.931	74.75	14.59	162.07	15.484	-45.472	13.720	0.16827	0.02832	0.61896	0.76660	21.0	13111	100
2025-5-25 10:41:19.135	WT901BLE68(801231B9234C)	-0.202	0.941	0.167	-2.930	4.028	-27.405	74.70	15.14	161.99	15.484	-45.472	13.720	0.16827	0.02832	0.61896	0.76660	21.0	13111	100
2025-5-25 10:41:19.135	WT901BLE68(801231B9234C)	-0.198	0.935	0.163	-2.075	5.615	-25.391	74.69	15.65	161.92	15.484	-45.472	13.720	0.16827	0.02832	0.61896	0.76660	21.0	13111	100
2025-5-25 10:41:19.136	WT901BLE68(801231B9234C)	-0.201	0.924	0.163	-0.732	5.859	-23.621	74.71	16.12	161.86	19.012	-44.492	14.112	0.16827	0.02832	0.61896	0.76660	21.0	13111	100
2025-5-25 10:41:19.136	WT901BLE68(801231B9234C)	-0.194	0.916	0.167	0.732	5.432	-21.729	74.76	16.54	161.78	19.012	-44.492	14.112	0.16827	0.02832	0.61896	0.76660	21.0	13111	100
2025-5-25 10:41:19.136	WT901BLE68(801231B9234C)	-0.192	0.907	0.182	2.319	4.272	-20.142	74.83	16.92	161.69	19.012	-44.492	14.112	0.16827	0.02832	0.61896	0.76660	21.0	13111	100
2025-5-25 10:41:19.164	WT901BLE68(801231B9234C)	-0.199	0.919	0.179	3.906	3.296	-18.005	74.94	17.25	161.58	19.012	-44.492	14.112	0.16827	0.02832	0.61896	0.76660	21.0	13111	100
2025-5-25 10:41:19.164	WT901BLE68(801231B9234C)	-0.198	0.928	0.180	5.127	1.953	-13.794	75.06	17.51	161.44	19.012	-44.492	14.112	0.16827	0.02832	0.61896	0.76660	21.0	13111	100
2025-5-25 10:41:19.374	WT901BLE68(801231B9234C)	-0.188	0.918	0.193	6.104	-0.061	-9.460	75.20	17.67	161.30	19.012	-44.492	14.112	0.16827	0.02832	0.61896	0.76660	21.0	13111	100
2025-5-25 10:41:19.375	WT901BLE68(801231B9234C)	-0.181	0.890	0.190	7.507	-1.953	-5.249	75.36	17.73	161.13	19.012	-44.492	14.112	0.16827	0.02832	0.61896	0.76660	21.0	13111	100
2025-5-25 10:41:19.375	WT901BLE68(801231B9234C)	-0.181	0.883	0.187	8.423	-1.160	-1.038	75.53	17.71	160.97	19.012	-44.492	14.112	0.16827	0.02832	0.61896	0.76660	21.0	13111	100
2025-5-25 10:41:19.376	WT901BLE68(801231B9234C)	-0.184	0.910	0.195	9.888	0.488	4.028	75.75	17.61	160.86	19.012	-44.492	14.112	0.16827	0.02832	0.61896	0.76660	21.0	13111	100
2025-5-25 10:41:19.376	WT901BLE68(801231B9234C)	-0.185	0.947	0.208	9.583	2.747	9.644	75.98	17.41	160.82	19.012	-44.492	14.112	0.16827	0.02832	0.61896	0.76660	21.0	13111	100
2025-5-25 10:41:19.376	WT901BLE68(801231B9234C)	-0.185	0.961	0.208	9.216	4.395	15.747	76.22	17.09	160.85	19.012	-44.492	14.112	0.16827	0.02832	0.61896	0.76660	21.0	13111	100
2025-5-25 10:41:19.377	WT901BLE68(801231B9234C)	-0.191	0.957	0.205	8.362	7.446	20.630	76.47	16.70	160.94	19.012	-44.492	14.112	0.16827	0.02832	0.61896	0.76660	21.0	13111	100
2025-5-25 10:41:19.377	WT901BLE68(801231B9234C)	-0.196	0.944	0.209	7.629	9.888	24.475	76.71	16.23	161.11	19.012	-44.492	14.112	0.16827	0.02832	0.61896	0.76660	21.0	13111	100
2025-5-25 10:41:19.378	WT901BLE68(801231B9234C)	-0.201	0.937	0.204	7.996	10.498	26.611	76.96	15.72	161.33	19.012	-44.492	14.112	0.16827	0.02832	0.61896	0.76660	21.0	13111	100
2025-5-25 10:41:19.378	WT901BLE68(801231B9234C)	-0.206	0.954	0.215	8.057	11.169	28.564	77.21	15.18	161.56	19.012	-44.492	14.112	0.16827	0.02832	0.61896	0.76660	21.0	13111	100
2025-5-25 10:41:19.403	WT901BLE68(801231B9234C)	-0.195	0.961	0.207	7.690	10.498	29.724	77.45	14.62	161.81	19.012	-44.492	14.112	0.16827	0.02832	0.61896	0.76660	21.0	13111	100
2025-5-25 10:41:19.404	WT901BLE68(801231B9234C)	-0.191	0.958	0.200	6.287	12.756	32.349	77.67	14.03	162.09	19.012	-44.492	14.112	0.19168	0.00824	0.63312	0.74982	21.0	13111	100
2025-5-25 10:41:19.464	WT901BLE68(801231B9234C)	-0.197	0.914	0.203	3.906	16.113	32.410	77.85	13.43	162.44	19.012	-44.492	14.112	0.19168	0.00824	0.63312	0.74982	21.0	13111	100
2025-5-25 10:41:19.464	WT901BLE68(801231B9234C)	-0.202	0.879	0.191	2.441	18.372	30.640	78.01	12.88	162.84	19.012	-44.492	14.112	0.19168	0.00824	0.63312	0.74982	21.0	13111	100
2025-5-25 10:41:19.499	WT901BLE68(801231B9234C)	-0.205	0.871	0.177	1.343	19.897	28.503	78.13	12.38	163.30	19.012	-44.492	14.112	0.19168	0.00824	0.63312	0.74982	21.0	13111	100
2025-5-25 10:41:19.499	WT901BLE68(801231B9234C)	-0.219	0.883	0.166	1.465	20.081	27.100	78.26	11.92	163.76	17.248	-44.492	16.268	0.19168	0.00824	0.63312	0.74982	21.0	13111	100
2025-5-25 10:41:19.524	WT901BLE68(801231B9234C)	-0.232	0.943	0.153	3.967	18.250	27.100	78.40	11.48	164.21	17.248	-44.492	16.268	0.19168	0.00824	0.63312	0.74982	21.0	13111	100
2025-5-25 10:41:19.524	WT901BLE68(801231B9234C)	-0.229	1.026	0.160	6.714	15.137	30.762	78.60	10.99	164.62	17.248	-44.492	16.268	0.19168	0.00824	0.63312	0.74982	21.0	13111	100
2025-5-25 10:41:19.584	WT901BLE68(801231B9234C)	-0.210	1.090	0.161	9.155	12.390	34.668	78.83	10.41	165.00	17.248	-44.492	16.268	0.19168	0.00824	0.63312	0.74982	21.0	13111	100
2025-5-25 10:41:19.584	WT901BLE68(801231B9234C)	-0.203	1.102	0.153	11.353	13.245	37.659	79.11	9.77	165.38	17.248	-44.492	16.268	0.19168	0.00824	0.63312	0.74982	21.0	13111	100
2025-5-25 10:41:19.614	WT901BLE68(801231B9234C)	-0.220	1.080	0.158	13.794	18.127	39.001	79.44	9.10	165.83	17.248	-44.492	16.268	0.19168	0.00824	0.63312	0.74982	21.0	13111	100
2025-5-25 10:41:19.614	WT901BLE68(801231B9234C)	-0.254	1.055	0.184	16.663	19.348	38.086	79.83	8.45	166.35	17.248	-44.492	16.268	0.19168	0.00824	0.63312	0.74982	21.0	13111	100
2025-5-25 10:41:19.644	WT901BLE68(801231B9234C)	-0.275	1.024	0.227	19.470	11.292	37.720	80.24	7.80	166.80	17.248	-44.492	16.268	0.19168	0.00824	0.63312	0.74982	21.0	13111	100
2025-5-25 10:41:19.645	WT901BLE68(801231B9234C)	-0.310	0.992	0.274	24.719	-4.944	38.208	80.69	7.12	167.00	17.248	-44.492	16.268	0.19168	0.00824	0.63312	0.74982	21.0	13111	100
2025-5-25 10:41:19.704	WT901BLE68(801231B9234C)	-0.380	0.928	0.351	26.855	-36.865	43.274	81.15	6.31	166.72	17.248	-44.492	16.268	0.12033	0.04675	0.65408	0.74524	21.0	13111	100
2025-5-25 10:41:19.704	WT901BLE68(801231B9234C)	-0.405	0.820	0.478	21.423	-87.952	46.326	81.44	5.33	165.65	17.248	-44.492	16.268	0.12033	0.04675	0.65408	0.74524	21.0	13111	100
2025-5-25 10:41:19.734	WT901BLE68(801231B9234C)	-0.299	0.675	0.641	23.071	-173.035	56.519	81.56	4.04	163.21	17.248	-44.492	16.268	0.12033	0.04675	0.65408	0.74524	21.0	13111	100
2025-5-25 10:41:19.734	WT901BLE68(801231B9234C)	-0.070	0.649	0.635	36.926	-247.437	69.336	81.81	2.29	159.22	17.248	-44.492	16.268	0.12033	0.04675	0.65408	0.74524	21.0	13111	100
2025-5-25 10:41:19.764	WT901BLE68(801231B9234C)	0.142	0.806	0.576	47.729	-275.818	73.792	82.39	0.32	154.36	17.248	-44.492	16.268	0.12033	0.04675	0.65408	0.74524	21.0	13111	100
2025-5-25 10:41:19.764	WT901BLE68(801231B9234C)	0.172	0.881	0.519	41.748	-244.934	80.872	83.13	-1.75	149.68	17.248	-44.492	16.268	0.12033	0.04675	0.65408	0.74524	21.0	13111	100
2025-5-25 10:41:19.824	WT901BLE68(801231B9234C)	0.118	0.875	0.491	34.485	-183.350	82.336	83.83	-3.71	146.03	17.248	-44.492	16.268	0.12033	0.04675	0.65408	0.74524	21.0	13111	100
2025-5-25 10:41:19.825	WT901BLE68(801231B9234C)	0.008	0.872	0.458	26.184	-114.197	75.439	84.35	-5.45	143.70	17.248	-44.492	16.268	0.12033	0.04675	0.65408	0.74524	21.0	13111	100
