time	DeviceName	AccX(g)	AccY(g)	AccZ(g)	AsX(°/s)	AsY(°/s)	AsZ(°/s)	AngleX(°)	AngleY(°)	AngleZ(°)	HX(uT)	HY(uT)	HZ(uT)	Q0()	Q1()	Q2()	Q3()	Temperature(°C)	Version()	Battery level(%)
2025-5-25 10:3:38.605	WT901BLE68(801231B9234C)	-0.310	0.771	0.154	-3.479	-6.287	-101.990	74.55	18.97	-113.86	-14.798	-38.416	1.764	-0.39764	-0.30127	0.53479	0.68188	23.4	13111	100
2025-5-25 10:3:38.605	WT901BLE68(801231B9234C)	-0.321	0.750	0.166	-2.747	1.953	-101.929	74.36	20.95	-114.40	-14.798	-38.416	1.764	-0.39764	-0.30127	0.53479	0.68188	23.4	13111	100
2025-5-25 10:3:38.651	WT901BLE68(801231B9234C)	-0.315	0.744	0.190	-3.113	10.742	-99.792	74.22	22.92	-114.76	-14.798	-38.416	1.764	-0.39764	-0.30127	0.53479	0.68188	23.4	13111	100
2025-5-25 10:3:38.651	WT901BLE68(801231B9234C)	-0.334	0.738	0.227	-3.967	19.165	-94.116	74.12	24.82	-114.96	-14.798	-38.416	1.764	-0.39764	-0.30127	0.53479	0.68188	23.4	13111	100
2025-5-25 10:3:38.675	WT901BLE68(801231B9234C)	-0.322	0.718	0.238	-5.432	22.888	-86.304	74.04	26.61	-115.06	-14.798	-38.416	1.764	-0.29874	-0.47009	0.39963	0.72797	23.4	13111	100
2025-5-25 10:3:38.675	WT901BLE68(801231B9234C)	-0.308	0.706	0.237	-6.775	23.438	-73.059	73.95	28.17	-115.10	-14.798	-38.416	1.764	-0.29874	-0.47009	0.39963	0.72797	23.4	13111	100
2025-5-25 10:3:38.724	WT901BLE68(801231B9234C)	-0.281	0.697	0.248	-6.592	23.926	-62.561	73.88	29.50	-115.12	-14.798	-38.416	1.764	-0.29874	-0.47009	0.39963	0.72797	23.4	13111	100
2025-5-25 10:3:38.724	WT901BLE68(801231B9234C)	-0.265	0.716	0.268	-6.470	26.184	-51.941	73.84	30.62	-115.09	-14.798	-38.416	1.764	-0.29874	-0.47009	0.39963	0.72797	23.4	13111	100
2025-5-25 10:3:38.763	WT901BLE68(801231B9234C)	-0.250	0.736	0.280	-5.920	29.053	-42.542	73.87	31.55	-115.00	-14.798	-38.416	1.764	-0.29874	-0.47009	0.39963	0.72797	23.4	13111	100
2025-5-25 10:3:38.763	WT901BLE68(801231B9234C)	-0.240	0.761	0.291	-4.944	31.433	-33.020	73.95	32.29	-114.86	-14.798	-38.416	1.764	-0.29874	-0.47009	0.39963	0.72797	23.4	13111	100
2025-5-25 10:3:38.808	WT901BLE68(801231B9234C)	-0.222	0.808	0.298	-3.540	32.959	-23.193	74.10	32.85	-114.69	-14.798	-38.416	1.764	-0.29874	-0.47009	0.39963	0.72797	23.4	13111	100
2025-5-25 10:3:38.809	WT901BLE68(801231B9234C)	-0.207	0.881	0.291	-2.625	33.813	-10.620	74.30	33.19	-114.49	-14.798	-38.416	1.764	-0.29874	-0.47009	0.39963	0.72797	23.4	13111	100
2025-5-25 10:3:38.853	WT901BLE68(801231B9234C)	-0.214	0.975	0.290	-1.282	34.180	5.066	74.57	33.24	-114.27	-14.798	-38.416	1.764	-0.29874	-0.47009	0.39963	0.72797	23.4	13111	100
2025-5-25 10:3:38.853	WT901BLE68(801231B9234C)	-0.255	1.068	0.292	0.183	32.898	24.170	74.90	32.93	-114.02	-14.798	-38.416	1.764	-0.29874	-0.47009	0.39963	0.72797	23.4	13111	100
2025-5-25 10:3:38.877	WT901BLE68(801231B9234C)	-0.298	1.179	0.308	0.854	29.968	41.504	75.27	32.23	-113.78	7.938	-40.180	-0.392	-0.29874	-0.47009	0.39963	0.72797	23.4	13111	100
2025-5-25 10:3:38.877	WT901BLE68(801231B9234C)	-0.283	1.363	0.301	-1.038	26.306	59.631	75.60	31.19	-113.55	7.938	-40.180	-0.392	-0.29874	-0.47009	0.39963	0.72797	23.4	13111	100
2025-5-25 10:3:38.925	WT901BLE68(801231B9234C)	-0.319	1.464	0.255	-1.221	24.414	77.087	75.92	29.76	-113.33	7.938	-40.180	-0.392	-0.29874	-0.47009	0.39963	0.72797	23.4	13111	100
2025-5-25 10:3:38.925	WT901BLE68(801231B9234C)	-0.377	1.534	0.197	1.404	27.710	88.196	76.31	28.09	-113.01	7.938	-40.180	-0.392	-0.29874	-0.47009	0.39963	0.72797	23.4	13111	100
2025-5-25 10:3:38.966	WT901BLE68(801231B9234C)	-0.403	1.631	0.192	5.737	28.748	101.868	76.81	26.17	-112.54	7.938	-40.180	-0.392	-0.29874	-0.47009	0.39963	0.72797	23.4	13111	100
2025-5-25 10:3:38.966	WT901BLE68(801231B9234C)	-0.436	1.544	0.217	8.057	27.039	106.445	77.38	24.10	-111.99	7.938	-40.180	-0.392	-0.29874	-0.47009	0.39963	0.72797	23.4	13111	100
2025-5-25 10:3:39.10	WT901BLE68(801231B9234C)	-0.488	1.447	0.232	6.226	19.104	100.830	77.87	22.06	-111.51	7.938	-40.180	-0.392	-0.29874	-0.47009	0.39963	0.72797	23.4	13111	100
2025-5-25 10:3:39.11	WT901BLE68(801231B9234C)	-0.476	1.423	0.214	-2.075	10.925	87.341	78.14	20.21	-111.19	7.938	-40.180	-0.392	-0.29874	-0.47009	0.39963	0.72797	23.4	13111	100
2025-5-25 10:3:39.55	WT901BLE68(801231B9234C)	-0.380	1.440	0.177	-17.578	6.165	73.425	78.07	18.65	-110.97	7.938	-40.180	-0.392	-0.29874	-0.47009	0.39963	0.72797	23.4	13111	100
2025-5-25 10:3:39.56	WT901BLE68(801231B9234C)	-0.312	1.416	0.112	-37.109	17.944	61.646	77.66	17.39	-110.64	7.938	-40.180	-0.392	-0.29874	-0.47009	0.39963	0.72797	23.4	13111	100
2025-5-25 10:3:39.81	WT901BLE68(801231B9234C)	-0.328	1.319	0.062	-51.453	51.086	57.251	77.06	16.39	-109.76	7.938	-40.180	-0.392	-0.37711	-0.44455	0.44449	0.68002	23.4	13111	100
2025-5-25 10:3:39.81	WT901BLE68(801231B9234C)	-0.343	1.194	0.055	-67.017	89.050	52.124	76.37	15.67	-108.09	7.938	-40.180	-0.392	-0.37711	-0.44455	0.44449	0.68002	23.4	13111	100
2025-5-25 10:3:39.128	WT901BLE68(801231B9234C)	-0.413	1.068	0.059	-75.989	129.944	52.612	75.66	15.17	-105.57	7.938	-40.180	-0.392	-0.37711	-0.44455	0.44449	0.68002	23.4	13111	100
2025-5-25 10:3:39.128	WT901BLE68(801231B9234C)	-0.462	0.880	0.081	-82.336	159.302	50.293	74.97	14.92	-102.35	7.938	-40.180	-0.392	-0.37711	-0.44455	0.44449	0.68002	23.4	13111	100
2025-5-25 10:3:39.169	WT901BLE68(801231B9234C)	-0.498	0.712	0.090	-88.623	169.739	44.617	74.23	14.91	-98.77	7.938	-40.180	-0.392	-0.37711	-0.44455	0.44449	0.68002	23.4	13111	100
2025-5-25 10:3:39.169	WT901BLE68(801231B9234C)	-0.508	0.576	0.083	-93.933	166.748	37.903	73.39	15.11	-95.20	7.938	-40.180	-0.392	-0.37711	-0.44455	0.44449	0.68002	23.4	13111	100
2025-5-25 10:3:39.212	WT901BLE68(801231B9234C)	-0.500	0.469	0.073	-94.116	155.457	31.189	72.49	15.49	-91.83	7.938	-40.180	-0.392	-0.37711	-0.44455	0.44449	0.68002	23.4	13111	100
2025-5-25 10:3:39.212	WT901BLE68(801231B9234C)	-0.500	0.384	0.059	-91.919	146.301	27.649	71.58	15.94	-88.72	7.938	-40.180	-0.392	-0.37711	-0.44455	0.44449	0.68002	23.4	13111	100
2025-5-25 10:3:39.260	WT901BLE68(801231B9234C)	-0.530	0.308	0.071	-86.243	147.339	24.353	70.76	16.54	-85.68	7.938	-40.180	-0.392	-0.37711	-0.44455	0.44449	0.68002	23.4	13111	100
2025-5-25 10:3:39.260	WT901BLE68(801231B9234C)	-0.620	0.206	0.118	-80.139	144.409	20.996	70.08	17.25	-82.68	7.938	-40.180	-0.392	-0.37711	-0.44455	0.44449	0.68002	23.4	13111	100
2025-5-25 10:3:39.283	WT901BLE68(801231B9234C)	-0.752	0.116	0.200	-72.937	127.991	13.428	69.49	18.09	-80.00	1.372	-36.260	-8.330	-0.37711	-0.44455	0.44449	0.68002	23.4	13111	100
2025-5-25 10:3:39.283	WT901BLE68(801231B9234C)	-0.888	0.051	0.307	-63.965	106.506	1.465	68.94	19.08	-77.84	1.372	-36.260	-8.330	-0.37711	-0.44455	0.44449	0.68002	23.4	13111	100
2025-5-25 10:3:39.328	WT901BLE68(801231B9234C)	-1.023	-0.048	0.404	-53.955	81.726	-12.878	68.43	20.24	-76.30	1.372	-36.260	-8.330	-0.37711	-0.44455	0.44449	0.68002	23.4	13111	100
2025-5-25 10:3:39.328	WT901BLE68(801231B9234C)	-1.195	-0.136	0.404	-33.325	55.176	-26.001	68.02	21.55	-75.46	1.372	-36.260	-8.330	-0.37711	-0.44455	0.44449	0.68002	23.4	13111	100
2025-5-25 10:3:39.371	WT901BLE68(801231B9234C)	-1.412	-0.178	0.427	-8.728	21.301	-44.556	67.80	23.02	-75.38	1.372	-36.260	-8.330	-0.37711	-0.44455	0.44449	0.68002	23.4	13111	100
2025-5-25 10:3:39.371	WT901BLE68(801231B9234C)	-1.498	-0.116	0.513	10.803	-17.334	-77.271	67.59	24.77	-76.31	1.372	-36.260	-8.330	-0.37711	-0.44455	0.44449	0.68002	23.4	13111	100
2025-5-25 10:3:39.416	WT901BLE68(801231B9234C)	-1.475	0.038	0.556	28.259	-48.767	-111.816	67.30	26.93	-78.24	1.372	-36.260	-8.330	-0.37711	-0.44455	0.44449	0.68002	23.4	13111	100
2025-5-25 10:3:39.416	WT901BLE68(801231B9234C)	-1.503	0.196	0.536	36.865	-57.861	-138.489	66.85	29.47	-80.87	1.372	-36.260	-8.330	-0.37711	-0.44455	0.44449	0.68002	23.4	13111	100
2025-5-25 10:3:39.464	WT901BLE68(801231B9234C)	-1.486	0.277	0.430	41.321	-51.819	-165.833	66.26	32.47	-83.74	1.372	-36.260	-8.330	-0.37711	-0.44455	0.44449	0.68002	23.4	13111	100
2025-5-25 10:3:39.464	WT901BLE68(801231B9234C)	-1.443	0.367	0.270	53.223	-52.612	-188.110	65.53	35.85	-86.90	1.372	-36.260	-8.330	-0.37711	-0.44455	0.44449	0.68002	23.4	13111	100
2025-5-25 10:3:39.485	WT901BLE68(801231B9234C)	-1.525	0.403	0.189	67.444	-54.688	-208.679	64.69	39.52	-90.44	1.372	-36.260	-8.330	-0.42239	-0.55862	0.16022	0.69550	23.4	13111	100
2025-5-25 10:3:39.485	WT901BLE68(801231B9234C)	-1.724	0.512	0.171	81.177	-67.993	-232.849	63.49	43.43	-94.64	1.372	-36.260	-8.330	-0.42239	-0.55862	0.16022	0.69550	23.4	13111	100
2025-5-25 10:3:39.528	WT901BLE68(801231B9234C)	-1.938	0.757	0.173	89.172	-91.492	-252.441	61.47	47.40	-99.95	1.372	-36.260	-8.330	-0.42239	-0.55862	0.16022	0.69550	23.4	13111	100
2025-5-25 10:3:39.529	WT901BLE68(801231B9234C)	-2.100	1.034	0.178	86.853	-125.854	-269.714	58.00	51.13	-106.84	1.372	-36.260	-8.330	-0.42239	-0.55862	0.16022	0.69550	23.4	13111	100
2025-5-25 10:3:39.574	WT901BLE68(801231B9234C)	-2.051	1.336	0.061	84.045	-169.189	-281.128	52.43	54.21	-115.88	1.372	-36.260	-8.330	-0.42239	-0.55862	0.16022	0.69550	23.4	13111	100
2025-5-25 10:3:39.574	WT901BLE68(801231B9234C)	-1.732	1.708	-0.009	82.275	-176.147	-275.330	45.31	56.32	-126.38	1.372	-36.260	-8.330	-0.42239	-0.55862	0.16022	0.69550	23.4	13111	100
2025-5-25 10:3:39.626	WT901BLE68(801231B9234C)	-1.348	1.901	-0.026	85.144	-139.221	-256.104	38.16	57.76	-136.52	1.372	-36.260	-8.330	-0.42239	-0.55862	0.16022	0.69550	23.4	13111	100
2025-5-25 10:3:39.627	WT901BLE68(801231B9234C)	-1.075	1.822	-0.049	93.506	-79.956	-226.807	32.27	59.10	-145.04	1.372	-36.260	-8.330	-0.42239	-0.55862	0.16022	0.69550	23.4	13111	100
2025-5-25 10:3:39.641	WT901BLE68(801231B9234C)	-0.801	1.628	-0.065	97.229	-39.856	-197.998	27.69	60.60	-151.90	1.372	-36.260	-8.330	-0.42239	-0.55862	0.16022	0.69550	23.4	13111	100
2025-5-25 10:3:39.642	WT901BLE68(801231B9234C)	-0.526	1.450	-0.077	99.060	-15.015	-168.152	24.02	62.11	-157.54	1.372	-36.260	-8.330	-0.42239	-0.55862	0.16022	0.69550	23.4	13111	100
2025-5-25 10:3:39.686	WT901BLE68(801231B9234C)	-0.257	1.212	-0.103	100.159	2.258	-137.878	21.25	63.62	-162.02	24.010	-21.070	-18.032	-0.42239	-0.55862	0.16022	0.69550	23.4	13111	100
2025-5-25 10:3:39.686	WT901BLE68(801231B9234C)	0.003	0.974	-0.127	101.257	14.954	-107.483	19.43	65.10	-165.31	24.010	-21.070	-18.032	-0.42239	-0.55862	0.16022	0.69550	23.4	13111	100
2025-5-25 10:3:39.731	WT901BLE68(801231B9234C)	0.145	0.798	-0.115	100.952	32.471	-84.290	18.61	66.69	-167.44	24.010	-21.070	-18.032	-0.42239	-0.55862	0.16022	0.69550	23.4	13111	100
2025-5-25 10:3:39.732	WT901BLE68(801231B9234C)	0.158	0.729	-0.088	93.201	57.800	-77.026	18.36	68.66	-168.76	24.010	-21.070	-18.032	-0.42239	-0.55862	0.16022	0.69550	23.4	13111	100
2025-5-25 10:3:39.776	WT901BLE68(801231B9234C)	0.147	0.716	-0.075	77.698	84.167	-73.181	18.25	71.15	-169.61	24.010	-21.070	-18.032	-0.42239	-0.55862	0.16022	0.69550	23.4	13111	100
2025-5-25 10:3:39.777	WT901BLE68(801231B9234C)	0.146	0.695	-0.062	63.354	105.164	-62.500	18.58	74.09	-169.66	24.010	-21.070	-18.032	-0.42239	-0.55862	0.16022	0.69550	23.4	13111	100
2025-5-25 10:3:39.827	WT901BLE68(801231B9234C)	0.170	0.730	-0.071	34.851	105.469	-48.584	19.42	77.15	-168.71	24.010	-21.070	-18.032	-0.42239	-0.55862	0.16022	0.69550	23.4	13111	100
2025-5-25 10:3:39.827	WT901BLE68(801231B9234C)	0.087	0.761	-0.069	-0.671	100.586	-25.208	21.76	80.05	-165.57	24.010	-21.070	-18.032	-0.42239	-0.55862	0.16022	0.69550	23.4	13111	100
2025-5-25 10:3:39.845	WT901BLE68(801231B9234C)	-0.104	0.834	-0.009	-47.607	88.501	0.183	27.48	82.58	-158.16	24.010	-21.070	-18.032	-0.42239	-0.55862	0.16022	0.69550	23.4	13111	100
2025-5-25 10:3:39.845	WT901BLE68(801231B9234C)	-0.508	0.883	0.070	-106.506	62.500	30.029	39.29	84.25	-143.57	24.010	-21.070	-18.032	-0.42239	-0.55862	0.16022	0.69550	23.4	13111	100
2025-5-25 10:3:39.890	WT901BLE68(801231B9234C)	-1.405	0.971	0.118	-178.833	15.137	49.438	52.99	84.64	-125.78	24.010	-21.070	-18.032	-0.05356	-0.68561	0.01230	0.72583	23.4	13111	100
2025-5-25 10:3:39.890	WT901BLE68(801231B9234C)	-2.172	1.007	0.017	-259.460	-52.917	76.233	56.89	83.61	-116.16	24.010	-21.070	-18.032	-0.05356	-0.68561	0.01230	0.72583	23.4	13111	100
2025-5-25 10:3:39.935	WT901BLE68(801231B9234C)	-1.806	0.722	-0.156	-277.710	-103.271	174.255	55.61	80.61	-110.82	24.010	-21.070	-18.032	-0.05356	-0.68561	0.01230	0.72583	23.4	13111	100
2025-5-25 10:3:39.935	WT901BLE68(801231B9234C)	-2.282	0.307	-0.000	-244.141	-51.941	257.019	57.22	75.86	-102.87	24.010	-21.070	-18.032	-0.05356	-0.68561	0.01230	0.72583	23.4	13111	100
2025-5-25 10:3:39.979	WT901BLE68(801231B9234C)	-2.905	0.610	0.247	-218.323	191.956	242.004	68.03	71.77	-86.24	24.010	-21.070	-18.032	-0.05356	-0.68561	0.01230	0.72583	23.4	13111	100
2025-5-25 10:3:39.979	WT901BLE68(801231B9234C)	-2.878	0.148	0.374	-220.947	284.912	173.584	80.89	69.35	-67.23	24.010	-21.070	-18.032	-0.05356	-0.68561	0.01230	0.72583	23.4	13111	100
2025-5-25 10:3:40.27	WT901BLE68(801231B9234C)	-2.373	-0.341	0.167	-194.946	202.271	118.408	89.16	66.91	-53.57	24.010	-21.070	-18.032	-0.05356	-0.68561	0.01230	0.72583	23.4	13111	100
2025-5-25 10:3:40.27	WT901BLE68(801231B9234C)	-1.627	-0.579	0.160	-163.269	57.739	80.994	90.48	65.11	-48.16	24.010	-21.070	-18.032	-0.05356	-0.68561	0.01230	0.72583	23.4	13111	100
2025-5-25 10:3:40.47	WT901BLE68(801231B9234C)	-1.033	-0.609	0.137	-139.038	-46.936	52.246	86.94	64.14	-48.86	24.010	-21.070	-18.032	-0.05356	-0.68561	0.01230	0.72583	23.4	13111	100
2025-5-25 10:3:40.48	WT901BLE68(801231B9234C)	-0.558	-0.622	0.135	-123.840	-74.402	35.889	81.77	63.46	-51.88	24.010	-21.070	-18.032	-0.05356	-0.68561	0.01230	0.72583	23.4	13111	100
2025-5-25 10:3:40.91	WT901BLE68(801231B9234C)	-0.200	-0.674	0.118	-107.117	-63.660	25.085	77.00	63.01	-54.82	28.812	-19.894	-18.228	-0.05356	-0.68561	0.01230	0.72583	23.4	13111	100
2025-5-25 10:3:40.92	WT901BLE68(801231B9234C)	0.012	-0.728	0.194	-85.571	-47.485	20.020	73.34	62.72	-57.01	28.812	-19.894	-18.228	-0.05356	-0.68561	0.01230	0.72583	23.4	13111	100
2025-5-25 10:3:40.138	WT901BLE68(801231B9234C)	0.100	-0.860	0.295	-61.584	-48.035	4.272	70.27	62.68	-59.07	28.812	-19.894	-18.228	-0.05356	-0.68561	0.01230	0.72583	23.4	13111	100
2025-5-25 10:3:40.138	WT901BLE68(801231B9234C)	0.161	-0.924	0.403	-31.006	-62.317	-20.691	67.21	63.02	-61.87	28.812	-19.894	-18.228	-0.05356	-0.68561	0.01230	0.72583	23.4	13111	100
2025-5-25 10:3:40.180	WT901BLE68(801231B9234C)	0.252	-1.063	0.322	-8.301	-75.684	-54.260	63.14	63.83	-66.28	28.812	-19.894	-18.228	-0.05356	-0.68561	0.01230	0.72583	23.4	13111	100
2025-5-25 10:3:40.181	WT901BLE68(801231B9234C)	0.220	-1.047	0.101	16.663	-64.148	-78.979	58.80	65.12	-71.42	28.812	-19.894	-18.228	-0.05356	-0.68561	0.01230	0.72583	23.4	13111	100
2025-5-25 10:3:40.226	WT901BLE68(801231B9234C)	-0.031	-1.010	-0.085	62.927	-42.175	-99.609	54.70	66.90	-77.02	28.812	-19.894	-18.228	-0.05356	-0.68561	0.01230	0.72583	23.4	13111	100
2025-5-25 10:3:40.226	WT901BLE68(801231B9234C)	-0.610	-0.921	-0.204	116.272	-26.428	-122.864	50.88	69.15	-83.27	28.812	-19.894	-18.228	-0.05356	-0.68561	0.01230	0.72583	23.4	13111	100
2025-5-25 10:3:40.249	WT901BLE68(801231B9234C)	-1.811	-0.840	-0.217	160.339	-8.301	-147.156	46.66	71.82	-90.80	28.812	-19.894	-18.228	-0.05356	-0.68561	0.01230	0.72583	23.4	13111	100
2025-5-25 10:3:40.249	WT901BLE68(801231B9234C)	-3.125	-0.947	0.072	165.100	11.292	-176.453	40.83	74.86	-100.35	28.812	-19.894	-18.228	-0.05356	-0.68561	0.01230	0.72583	23.4	13111	100
2025-5-25 10:3:40.294	WT901BLE68(801231B9234C)	-4.062	-0.799	0.074	135.437	-85.327	-180.359	29.32	76.97	-115.24	28.812	-19.894	-18.228	-0.25381	-0.60489	-0.14752	0.74014	23.4	13111	100
2025-5-25 10:3:40.294	WT901BLE68(801231B9234C)	-4.001	-0.173	-0.240	155.029	-175.842	-218.201	12.19	75.64	-135.84	28.812	-19.894	-18.228	-0.25381	-0.60489	-0.14752	0.74014	23.4	13111	100
2025-5-25 10:3:40.338	WT901BLE68(801231B9234C)	-3.187	0.542	-0.191	153.015	-157.959	-309.814	-5.81	73.03	-157.49	28.812	-19.894	-18.228	-0.25381	-0.60489	-0.14752	0.74014	23.4	13111	100
2025-5-25 10:3:40.338	WT901BLE68(801231B9234C)	-2.704	1.244	0.086	185.730	-132.141	-300.476	-18.11	68.96	-174.04	28.812	-19.894	-18.228	-0.25381	-0.60489	-0.14752	0.74014	23.4	13111	100
2025-5-25 10:3:40.383	WT901BLE68(801231B9234C)	-2.303	1.339	0.360	168.823	-28.809	-288.635	-26.37	65.89	173.48	28.812	-19.894	-18.228	-0.25381	-0.60489	-0.14752	0.74014	23.4	13111	100
2025-5-25 10:3:40.383	WT901BLE68(801231B9234C)	-1.441	1.310	0.300	167.664	-37.842	-244.385	-32.10	63.17	163.86	28.812	-19.894	-18.228	-0.25381	-0.60489	-0.14752	0.74014	23.4	13111	100
2025-5-25 10:3:40.407	WT901BLE68(801231B9234C)	-0.717	1.396	0.039	172.119	-39.246	-184.448	-34.24	60.56	158.13	28.812	-19.894	-18.228	-0.25381	-0.60489	-0.14752	0.74014	23.4	13111	100
2025-5-25 10:3:40.407	WT901BLE68(801231B9234C)	-0.225	1.342	-0.056	147.461	-2.563	-129.944	-35.10	59.04	154.11	28.812	-19.894	-18.228	-0.25381	-0.60489	-0.14752	0.74014	23.4	13111	100
2025-5-25 10:3:40.452	WT901BLE68(801231B9234C)	0.007	1.092	-0.002	133.667	55.786	-78.796	-35.68	59.04	150.94	28.812	-19.894	-18.228	-0.25381	-0.60489	-0.14752	0.74014	23.4	13111	100
2025-5-25 10:3:40.452	WT901BLE68(801231B9234C)	0.211	0.973	0.010	118.286	83.801	-54.016	-36.61	60.11	147.89	28.812	-19.894	-18.228	-0.25381	-0.60489	-0.14752	0.74014	23.4	13111	100
2025-5-25 10:3:40.496	WT901BLE68(801231B9234C)	0.287	0.992	0.006	97.656	109.497	-40.405	-38.19	61.77	144.68	28.812	-19.894	-18.228	-0.25381	-0.60489	-0.14752	0.74014	23.4	13111	100
2025-5-25 10:3:40.496	WT901BLE68(801231B9234C)	0.030	0.996	-0.022	60.730	147.888	-33.630	-41.62	64.00	140.28	32.536	-16.758	-16.170	-0.25381	-0.60489	-0.14752	0.74014	23.4	13111	100
2025-5-25 10:3:40.541	WT901BLE68(801231B9234C)	-0.320	0.846	-0.042	-3.174	147.461	-14.099	-47.21	66.55	134.85	32.536	-16.758	-16.170	-0.25381	-0.60489	-0.14752	0.74014	23.4	13111	100
2025-5-25 10:3:40.541	WT901BLE68(801231B9234C)	-0.370	0.640	0.000	-74.524	94.116	6.836	-53.89	68.68	129.99	32.536	-16.758	-16.170	-0.25381	-0.60489	-0.14752	0.74014	23.4	13111	100
2025-5-25 10:3:40.586	WT901BLE68(801231B9234C)	-0.024	0.848	0.060	-129.333	17.883	41.443	-58.75	70.24	128.38	32.536	-16.758	-16.170	-0.25381	-0.60489	-0.14752	0.74014	23.4	13111	100
2025-5-25 10:3:40.586	WT901BLE68(801231B9234C)	0.225	0.916	0.081	-192.017	-43.762	112.854	-60.44	71.97	131.45	32.536	-16.758	-16.170	-0.25381	-0.60489	-0.14752	0.74014	23.4	13111	100
2025-5-25 10:3:40.610	WT901BLE68(801231B9234C)	-0.024	0.516	0.268	-263.733	-39.856	189.880	-59.61	74.78	138.59	32.536	-16.758	-16.170	-0.25381	-0.60489	-0.14752	0.74014	23.4	13111	100
2025-5-25 10:3:40.610	WT901BLE68(801231B9234C)	-1.131	0.481	0.420	-264.160	11.597	216.675	-57.21	79.02	147.61	32.536	-16.758	-16.170	-0.25381	-0.60489	-0.14752	0.74014	23.4	13111	100
2025-5-25 10:3:40.678	WT901BLE68(801231B9234C)	-2.841	0.782	0.412	-281.494	62.561	252.869	-51.84	84.16	159.66	32.536	-16.758	-16.170	-0.25381	-0.60489	-0.14752	0.74014	23.4	13111	100
2025-5-25 10:3:40.678	WT901BLE68(801231B9234C)	-3.758	0.954	0.402	-310.181	93.567	283.997	19.05	88.96	-122.20	32.536	-16.758	-16.170	-0.25381	-0.60489	-0.14752	0.74014	23.4	13111	100
2025-5-25 10:3:40.700	WT901BLE68(801231B9234C)	-3.037	0.730	0.170	-249.146	-0.305	322.754	83.33	83.47	-51.45	32.536	-16.758	-16.170	-0.35831	-0.66122	-0.21875	0.62164	23.4	13111	100
2025-5-25 10:3:40.700	WT901BLE68(801231B9234C)	-2.779	0.080	0.380	-199.402	-33.264	264.343	80.22	77.42	-49.74	32.536	-16.758	-16.170	-0.35831	-0.66122	-0.21875	0.62164	23.4	13111	100
2025-5-25 10:3:40.743	WT901BLE68(801231B9234C)	-2.016	-0.305	0.309	-153.809	-54.260	217.773	76.53	72.65	-49.96	32.536	-16.758	-16.170	-0.35831	-0.66122	-0.21875	0.62164	23.4	13111	100
2025-5-25 10:3:40.744	WT901BLE68(801231B9234C)	-1.160	-0.505	0.206	-116.638	-93.506	202.576	72.52	68.35	-51.51	32.536	-16.758	-16.170	-0.35831	-0.66122	-0.21875	0.62164	23.4	13111	100
2025-5-25 10:3:40.788	WT901BLE68(801231B9234C)	-0.627	-0.608	0.104	-83.191	-97.961	198.792	69.22	64.09	-53.21	32.536	-16.758	-16.170	-0.35831	-0.66122	-0.21875	0.62164	23.4	13111	100
2025-5-25 10:3:40.788	WT901BLE68(801231B9234C)	-0.271	-0.614	0.044	-53.040	-76.904	183.777	67.42	60.25	-53.98	32.536	-16.758	-16.170	-0.35831	-0.66122	-0.21875	0.62164	23.4	13111	100
2025-5-25 10:3:40.812	WT901BLE68(801231B9234C)	-0.188	-0.616	0.042	-26.672	-42.908	172.119	67.12	56.96	-53.69	32.536	-16.758	-16.170	-0.35831	-0.66122	-0.21875	0.62164	23.4	13111	100
2025-5-25 10:3:40.813	WT901BLE68(801231B9234C)	-0.177	-0.772	0.181	-6.470	-31.067	145.386	67.60	54.31	-52.98	32.536	-16.758	-16.170	-0.35831	-0.66122	-0.21875	0.62164	23.4	13111	100
2025-5-25 10:3:40.855	WT901BLE68(801231B9234C)	-0.267	-1.044	0.343	22.888	-50.476	93.933	67.73	52.41	-53.25	32.536	-16.758	-16.170	-0.35831	-0.66122	-0.21875	0.62164	23.4	13111	100
2025-5-25 10:3:40.855	WT901BLE68(801231B9234C)	-0.522	-1.120	0.371	35.095	-53.711	25.818	67.46	51.74	-54.63	32.536	-16.758	-16.170	-0.35831	-0.66122	-0.21875	0.62164	23.4	13111	100
2025-5-25 10:3:40.901	WT901BLE68(801231B9234C)	-0.894	-1.227	0.285	44.556	-47.424	-26.733	66.81	52.25	-56.67	32.536	-16.758	-16.170	-0.35831	-0.66122	-0.21875	0.62164	23.4	13111	100
2025-5-25 10:3:40.901	WT901BLE68(801231B9234C)	-1.142	-1.273	0.301	69.153	-50.354	-94.788	65.84	53.91	-59.51	14.308	-26.166	-26.460	-0.35831	-0.66122	-0.21875	0.62164	23.4	13111	100
2025-5-25 10:3:40.949	WT901BLE68(801231B9234C)	-1.273	-0.903	0.350	89.600	-76.843	-166.260	63.70	56.73	-64.24	14.308	-26.166	-26.460	-0.35831	-0.66122	-0.21875	0.62164	23.4	13111	100
2025-5-25 10:3:40.949	WT901BLE68(801231B9234C)	-1.707	-0.573	0.391	84.290	-113.770	-215.820	59.13	60.05	-71.73	14.308	-26.166	-26.460	-0.35831	-0.66122	-0.21875	0.62164	23.4	13111	100
2025-5-25 10:3:40.990	WT901BLE68(801231B9234C)	-2.448	-0.333	0.582	72.510	-124.329	-250.244	51.55	63.21	-82.19	14.308	-26.166	-26.460	-0.35831	-0.66122	-0.21875	0.62164	23.4	13111	100
2025-5-25 10:3:40.991	WT901BLE68(801231B9234C)	-2.993	0.093	0.818	42.114	-119.995	-259.277	41.15	65.76	-95.05	14.308	-26.166	-26.460	-0.35831	-0.66122	-0.21875	0.62164	23.4	13111	100
2025-5-25 10:3:41.15	WT901BLE68(801231B9234C)	-2.809	0.454	0.810	25.757	-180.176	-263.245	27.69	66.52	-110.43	14.308	-26.166	-26.460	-0.35831	-0.66122	-0.21875	0.62164	23.4	13111	100
2025-5-25 10:3:41.15	WT901BLE68(801231B9234C)	-2.130	1.059	0.656	48.157	-212.036	-254.272	14.72	64.69	-125.61	14.308	-26.166	-26.460	-0.35831	-0.66122	-0.21875	0.62164	23.4	13111	100
2025-5-25 10:3:41.57	WT901BLE68(801231B9234C)	-1.694	1.820	0.588	50.537	-132.751	-222.107	5.39	62.33	-137.24	14.308	-26.166	-26.460	-0.35831	-0.66122	-0.21875	0.62164	23.4	13111	100
2025-5-25 10:3:41.57	WT901BLE68(801231B9234C)	-1.687	1.601	0.530	51.208	20.203	-200.867	-1.14	61.83	-145.74	14.308	-26.166	-26.460	-0.35831	-0.66122	-0.21875	0.62164	23.4	13111	100
2025-5-25 10:3:41.103	WT901BLE68(801231B9234C)	-1.072	1.749	0.229	80.811	129.578	-153.992	-6.21	63.74	-152.88	14.308	-26.166	-26.460	-0.35831	-0.66122	-0.21875	0.62164	23.4	13111	100
2025-5-25 10:3:41.104	WT901BLE68(801231B9234C)	-0.633	1.509	0.051	114.136	198.364	-93.262	-9.34	67.09	-158.35	14.308	-26.166	-26.460	-0.35831	-0.66122	-0.21875	0.62164	23.4	13111	100
2025-5-25 10:3:41.149	WT901BLE68(801231B9234C)	-0.389	1.091	0.058	136.169	253.845	-67.871	-11.90	71.74	-163.53	14.308	-26.166	-26.460	-0.17294	-0.56158	-0.16266	0.79254	23.4	13111	100
2025-5-25 10:3:41.149	WT901BLE68(801231B9234C)	-0.201	0.957	0.003	141.052	256.409	-51.697	-15.93	76.80	-170.21	14.308	-26.166	-26.460	-0.17294	-0.56158	-0.16266	0.79254	23.4	13111	100
2025-5-25 10:3:41.172	WT901BLE68(801231B9234C)	-0.105	0.963	-0.002	132.935	207.336	-36.560	-22.63	81.24	-179.29	14.308	-26.166	-26.460	-0.17294	-0.56158	-0.16266	0.79254	23.4	13111	100
2025-5-25 10:3:41.173	WT901BLE68(801231B9234C)	0.057	0.965	0.023	102.295	106.567	-38.330	-32.44	83.98	169.18	14.308	-26.166	-26.460	-0.17294	-0.56158	-0.16266	0.79254	23.4	13111	100
2025-5-25 10:3:41.215	WT901BLE68(801231B9234C)	0.380	0.928	0.045	82.336	20.264	-47.363	-41.70	84.90	158.82	14.308	-26.166	-26.460	-0.17294	-0.56158	-0.16266	0.79254	23.4	13111	100
2025-5-25 10:3:41.215	WT901BLE68(801231B9234C)	0.477	0.831	0.020	42.419	-47.546	-31.799	-43.90	84.55	156.52	14.308	-26.166	-26.460	-0.17294	-0.56158	-0.16266	0.79254	23.4	13111	100
2025-5-25 10:3:41.263	WT901BLE68(801231B9234C)	0.383	0.735	-0.052	-2.319	-41.321	-3.967	-41.22	84.39	160.00	14.308	-26.166	-26.460	-0.17294	-0.56158	-0.16266	0.79254	23.4	13111	100
2025-5-25 10:3:41.263	WT901BLE68(801231B9234C)	0.283	0.974	-0.111	-56.030	-1.038	50.842	-38.20	85.26	164.82	14.308	-26.166	-26.460	-0.17294	-0.56158	-0.16266	0.79254	23.4	13111	100
2025-5-25 10:3:41.305	WT901BLE68(801231B9234C)	-0.160	1.098	0.010	-110.596	40.222	129.456	-19.83	87.59	-173.95	32.928	-25.088	-11.172	-0.17294	-0.56158	-0.16266	0.79254	23.4	13111	100
2025-5-25 10:3:41.306	WT901BLE68(801231B9234C)	-1.693	0.995	0.137	-179.626	68.298	169.922	69.82	88.00	-80.17	32.928	-25.088	-11.172	-0.17294	-0.56158	-0.16266	0.79254	23.4	13111	100
2025-5-25 10:3:41.351	WT901BLE68(801231B9234C)	-3.825	1.342	-0.082	-245.300	105.286	192.688	101.64	83.96	-42.93	32.928	-25.088	-11.172	-0.17294	-0.56158	-0.16266	0.79254	23.4	13111	100
2025-5-25 10:3:41.351	WT901BLE68(801231B9234C)	-3.496	1.165	0.271	-266.907	65.918	312.622	102.42	77.94	-35.72	32.928	-25.088	-11.172	-0.17294	-0.56158	-0.16266	0.79254	23.4	13111	100
2025-5-25 10:3:41.375	WT901BLE68(801231B9234C)	-2.758	1.014	0.675	-219.727	-8.728	256.958	94.56	71.75	-38.51	32.928	-25.088	-11.172	-0.17294	-0.56158	-0.16266	0.79254	23.4	13111	100
2025-5-25 10:3:41.375	WT901BLE68(801231B9234C)	-2.354	0.524	0.638	-195.190	92.346	133.667	92.35	68.23	-36.35	32.928	-25.088	-11.172	-0.17294	-0.56158	-0.16266	0.79254	23.4	13111	100
2025-5-25 10:3:41.426	WT901BLE68(801231B9234C)	-1.885	-0.097	0.399	-166.870	171.509	89.905	94.92	65.91	-29.83	32.928	-25.088	-11.172	-0.17294	-0.56158	-0.16266	0.79254	23.4	13111	100
2025-5-25 10:3:41.426	WT901BLE68(801231B9234C)	-1.329	-0.473	0.154	-150.146	148.865	64.514	98.04	64.17	-23.14	32.928	-25.088	-11.172	-0.17294	-0.56158	-0.16266	0.79254	23.4	13111	100
2025-5-25 10:3:41.462	WT901BLE68(801231B9234C)	-0.852	-0.759	0.030	-131.592	42.847	47.241	98.10	63.07	-20.22	32.928	-25.088	-11.172	-0.17294	-0.56158	-0.16266	0.79254	23.4	13111	100
2025-5-25 10:3:41.462	WT901BLE68(801231B9234C)	-0.159	-0.766	0.045	-101.807	-47.974	36.072	94.94	62.55	-21.64	32.928	-25.088	-11.172	-0.17294	-0.56158	-0.16266	0.79254	23.4	13111	100
2025-5-25 10:3:41.510	WT901BLE68(801231B9234C)	0.363	-0.744	0.016	-86.243	-63.110	47.119	90.75	62.11	-24.76	32.928	-25.088	-11.172	-0.17294	-0.56158	-0.16266	0.79254	23.4	13111	100
2025-5-25 10:3:41.510	WT901BLE68(801231B9234C)	0.584	-0.919	0.082	-63.538	-33.508	43.945	87.68	61.56	-27.02	32.928	-25.088	-11.172	-0.17294	-0.56158	-0.16266	0.79254	23.4	13111	100
2025-5-25 10:3:41.554	WT901BLE68(801231B9234C)	0.430	-1.136	0.318	-42.786	-9.399	8.545	86.26	61.60	-27.97	32.928	-25.088	-11.172	-0.52298	-0.66348	-0.21497	0.48984	23.4	13111	100
2025-5-25 10:3:41.555	WT901BLE68(801231B9234C)	0.269	-1.260	0.424	9.766	-5.981	-37.964	85.72	62.76	-28.66	32.928	-25.088	-11.172	-0.52298	-0.66348	-0.21497	0.48984	23.4	13111	100
2025-5-25 10:3:41.577	WT901BLE68(801231B9234C)	0.007	-1.241	0.342	42.542	2.563	-51.575	86.37	64.64	-29.08	32.928	-25.088	-11.172	-0.52298	-0.66348	-0.21497	0.48984	23.4	13111	100
2025-5-25 10:3:41.578	WT901BLE68(801231B9234C)	-0.201	-1.105	0.252	73.730	-8.301	-62.012	87.32	66.72	-29.73	32.928	-25.088	-11.172	-0.52298	-0.66348	-0.21497	0.48984	23.4	13111	100
2025-5-25 10:3:41.627	WT901BLE68(801231B9234C)	-0.801	-0.905	0.197	122.070	-21.484	-75.195	88.59	69.04	-30.97	32.928	-25.088	-11.172	-0.52298	-0.66348	-0.21497	0.48984	23.4	13111	100
2025-5-25 10:3:41.627	WT901BLE68(801231B9234C)	-2.386	-0.708	0.167	147.156	-21.667	-134.644	90.30	72.17	-32.42	32.928	-25.088	-11.172	-0.52298	-0.66348	-0.21497	0.48984	23.4	13111	100
2025-5-25 10:3:41.665	WT901BLE68(801231B9234C)	-3.508	-0.538	0.304	139.893	-21.790	-207.825	92.36	76.71	-33.63	32.928	-25.088	-11.172	-0.52298	-0.66348	-0.21497	0.48984	23.4	13111	100
2025-5-25 10:3:41.665	WT901BLE68(801231B9234C)	-4.196	-0.319	0.608	152.039	-115.051	-196.838	88.98	81.48	-40.40	32.928	-25.088	-11.172	-0.52298	-0.66348	-0.21497	0.48984	23.4	13111	100
2025-5-25 10:3:41.711	WT901BLE68(801231B9234C)	-4.482	0.282	0.346	117.920	-177.917	-220.764	56.01	84.88	-76.60	32.928	-25.088	-11.172	-0.52298	-0.66348	-0.21497	0.48984	23.4	13111	100
2025-5-25 10:3:41.711	WT901BLE68(801231B9234C)	-2.946	0.714	0.363	77.881	-278.259	-289.795	-4.96	82.86	-139.81	32.928	-25.088	-11.172	-0.52298	-0.66348	-0.21497	0.48984	23.4	13111	100
2025-5-25 10:3:41.756	WT901BLE68(801231B9234C)	-1.946	1.562	0.231	119.507	-290.100	-287.170	-23.88	75.29	-161.27	27.342	-23.226	-21.364	-0.52298	-0.66348	-0.21497	0.48984	23.4	13111	100
2025-5-25 10:3:41.756	WT901BLE68(801231B9234C)	-1.419	1.901	0.047	57.312	-105.652	-242.310	-31.44	69.90	-170.97	27.342	-23.226	-21.364	-0.52298	-0.66348	-0.21497	0.48984	23.4	13111	100
2025-5-25 10:3:41.780	WT901BLE68(801231B9234C)	-1.047	1.439	-0.117	44.250	68.359	-173.340	-38.69	68.08	-179.60	27.342	-23.226	-21.364	-0.52298	-0.66348	-0.21497	0.48984	23.4	13111	100
2025-5-25 10:3:41.780	WT901BLE68(801231B9234C)	-0.622	1.151	-0.154	66.528	137.817	-117.310	-46.16	68.40	171.36	27.342	-23.226	-21.364	-0.52298	-0.66348	-0.21497	0.48984	23.4	13111	100
2025-5-25 10:3:41.828	WT901BLE68(801231B9234C)	-0.292	0.912	-0.148	91.675	153.564	-70.374	-52.90	69.53	162.73	27.342	-23.226	-21.364	-0.52298	-0.66348	-0.21497	0.48984	23.4	13111	100
2025-5-25 10:3:41.828	WT901BLE68(801231B9234C)	-0.032	0.788	-0.065	90.698	120.911	-48.889	-58.84	70.68	154.98	27.342	-23.226	-21.364	-0.52298	-0.66348	-0.21497	0.48984	23.4	13111	100
2025-5-25 10:3:41.869	WT901BLE68(801231B9234C)	0.169	0.868	0.059	81.238	72.144	-53.101	-63.24	71.28	149.10	27.342	-23.226	-21.364	-0.52298	-0.66348	-0.21497	0.48984	23.4	13111	100
2025-5-25 10:3:41.870	WT901BLE68(801231B9234C)	0.365	0.901	0.055	65.125	25.513	-66.345	-66.04	71.14	145.40	27.342	-23.226	-21.364	-0.52298	-0.66348	-0.21497	0.48984	23.4	13111	100
2025-5-25 10:3:41.913	WT901BLE68(801231B9234C)	0.610	0.889	-0.050	38.879	-3.357	-64.209	-67.71	70.58	143.55	27.342	-23.226	-21.364	-0.52298	-0.66348	-0.21497	0.48984	23.4	13111	100
2025-5-25 10:3:41.913	WT901BLE68(801231B9234C)	0.556	0.740	-0.099	24.780	3.113	-34.485	-69.38	70.36	142.29	27.342	-23.226	-21.364	-0.08755	-0.59644	-0.28629	0.74466	23.4	13111	100
2025-5-25 10:3:41.959	WT901BLE68(801231B9234C)	0.279	0.745	-0.072	2.625	17.578	-0.244	-71.74	70.90	140.58	27.342	-23.226	-21.364	-0.08755	-0.59644	-0.28629	0.74466	23.4	13111	100
2025-5-25 10:3:41.959	WT901BLE68(801231B9234C)	0.091	0.958	-0.153	-48.462	42.236	59.204	-75.81	72.37	137.92	27.342	-23.226	-21.364	-0.08755	-0.59644	-0.28629	0.74466	23.4	13111	100
2025-5-25 10:3:41.982	WT901BLE68(801231B9234C)	-0.120	1.095	-0.105	-98.877	32.593	164.795	-80.88	75.72	135.32	27.342	-23.226	-21.364	-0.08755	-0.59644	-0.28629	0.74466	23.4	13111	100
2025-5-25 10:3:41.982	WT901BLE68(801231B9234C)	-1.203	0.948	0.073	-155.579	10.986	222.290	-86.86	80.41	132.86	27.342	-23.226	-21.364	-0.08755	-0.59644	-0.28629	0.74466	23.4	13111	100
2025-5-25 10:3:42.27	WT901BLE68(801231B9234C)	-3.589	1.143	0.008	-218.140	24.841	224.365	-100.72	85.52	123.75	27.342	-23.226	-21.364	-0.08755	-0.59644	-0.28629	0.74466	23.4	13111	100
2025-5-25 10:3:42.27	WT901BLE68(801231B9234C)	-3.245	1.042	-0.008	-257.690	67.322	322.937	161.34	87.47	31.55	27.342	-23.226	-21.364	-0.08755	-0.59644	-0.28629	0.74466	23.4	13111	100
2025-5-25 10:3:42.70	WT901BLE68(801231B9234C)	-3.083	0.463	0.424	-155.334	-15.259	362.183	106.94	81.16	-18.44	27.342	-23.226	-21.364	-0.08755	-0.59644	-0.28629	0.74466	23.4	13111	100
2025-5-25 10:3:42.70	WT901BLE68(801231B9234C)	-3.106	0.671	0.747	-165.100	197.388	192.688	106.98	75.36	-14.78	27.342	-23.226	-21.364	-0.08755	-0.59644	-0.28629	0.74466	23.4	13111	100
2025-5-25 10:3:42.116	WT901BLE68(801231B9234C)	-2.328	-0.060	0.529	-132.690	199.524	143.738	112.43	70.89	-5.77	27.342	-23.226	-21.364	-0.08755	-0.59644	-0.28629	0.74466	23.4	13111	100
2025-5-25 10:3:42.116	WT901BLE68(801231B9234C)	-1.583	-0.401	0.426	-109.314	120.667	98.389	114.40	67.65	-1.27	27.342	-23.226	-21.364	-0.08755	-0.59644	-0.28629	0.74466	23.4	13111	100
2025-5-25 10:3:42.142	WT901BLE68(801231B9234C)	-1.162	-0.437	0.341	-94.055	49.744	74.707	113.71	65.75	-0.14	30.184	-23.520	-18.326	-0.08755	-0.59644	-0.28629	0.74466	23.4	13111	100
2025-5-25 10:3:42.142	WT901BLE68(801231B9234C)	-0.701	-0.509	0.302	-87.097	0.610	57.434	111.41	64.73	-1.08	30.184	-23.520	-18.326	-0.08755	-0.59644	-0.28629	0.74466	23.4	13111	100
2025-5-25 10:3:42.183	WT901BLE68(801231B9234C)	-0.228	-0.646	0.238	-75.989	-33.142	55.542	108.12	64.20	-3.39	30.184	-23.520	-18.326	-0.08755	-0.59644	-0.28629	0.74466	23.4	13111	100
2025-5-25 10:3:42.184	WT901BLE68(801231B9234C)	0.135	-0.834	0.195	-64.575	-30.457	52.734	104.86	63.72	-6.01	30.184	-23.520	-18.326	-0.08755	-0.59644	-0.28629	0.74466	23.4	13111	100
2025-5-25 10:3:42.228	WT901BLE68(801231B9234C)	0.289	-1.045	0.204	-41.748	-1.526	24.231	103.15	63.55	-7.32	30.184	-23.520	-18.326	-0.08755	-0.59644	-0.28629	0.74466	23.4	13111	100
2025-5-25 10:3:42.228	WT901BLE68(801231B9234C)	0.108	-1.245	0.285	-15.808	32.288	-13.855	103.77	63.99	-6.67	30.184	-23.520	-18.326	-0.08755	-0.59644	-0.28629	0.74466	23.4	13111	100
2025-5-25 10:3:42.274	WT901BLE68(801231B9234C)	-0.114	-1.347	0.379	18.066	23.376	-41.870	105.94	65.12	-5.00	30.184	-23.520	-18.326	-0.08755	-0.59644	-0.28629	0.74466	23.4	13111	100
2025-5-25 10:3:42.274	WT901BLE68(801231B9234C)	-0.333	-1.194	0.382	67.871	-16.846	-57.373	108.47	66.92	-3.98	30.184	-23.520	-18.326	-0.08755	-0.59644	-0.28629	0.74466	23.4	13111	100
2025-5-25 10:3:42.342	WT901BLE68(801231B9234C)	-0.556	-0.821	0.363	113.159	-63.232	-76.782	110.29	69.32	-4.69	30.184	-23.520	-18.326	-0.08755	-0.59644	-0.28629	0.74466	23.4	13111	100
2025-5-25 10:3:42.343	WT901BLE68(801231B9234C)	-0.867	-0.553	0.251	126.404	-108.459	-118.652	110.96	72.73	-7.05	30.184	-23.520	-18.326	-0.41733	-0.68488	-0.28903	0.52258	23.4	13111	100
2025-5-25 10:3:42.343	WT901BLE68(801231B9234C)	-1.856	-0.427	0.108	136.841	-136.230	-153.564	109.57	77.02	-11.71	30.184	-23.520	-18.326	-0.41733	-0.68488	-0.28903	0.52258	23.4	13111	100
2025-5-25 10:3:42.343	WT901BLE68(801231B9234C)	-3.259	-0.568	0.305	128.845	-118.347	-202.454	106.77	81.91	-17.77	30.184	-23.520	-18.326	-0.41733	-0.68488	-0.28903	0.52258	23.4	13111	100
2025-5-25 10:3:42.386	WT901BLE68(801231B9234C)	-3.811	-0.529	0.683	113.342	-174.988	-235.168	90.07	87.43	-37.30	30.184	-23.520	-18.326	-0.41733	-0.68488	-0.28903	0.52258	23.4	13111	100
2025-5-25 10:3:42.386	WT901BLE68(801231B9234C)	-3.448	0.374	0.543	67.078	-280.396	-228.577	-18.52	85.29	-148.12	30.184	-23.520	-18.326	-0.41733	-0.68488	-0.28903	0.52258	23.4	13111	100
2025-5-25 10:3:42.431	WT901BLE68(801231B9234C)	-2.305	0.648	0.561	14.343	-319.885	-270.203	-31.63	77.53	-162.19	30.184	-23.520	-18.326	-0.41733	-0.68488	-0.28903	0.52258	23.4	13111	100
2025-5-25 10:3:42.431	WT901BLE68(801231B9234C)	-1.513	1.100	0.286	51.147	-257.751	-259.888	-34.85	69.60	-166.44	30.184	-23.520	-18.326	-0.41733	-0.68488	-0.28903	0.52258	23.4	13111	100
2025-5-25 10:3:42.475	WT901BLE68(801231B9234C)	-1.048	1.523	0.109	24.353	-42.419	-214.478	-39.12	65.00	-171.99	30.184	-23.520	-18.326	-0.41733	-0.68488	-0.28903	0.52258	23.4	13111	100
2025-5-25 10:3:42.475	WT901BLE68(801231B9234C)	-0.843	1.125	0.061	28.015	144.714	-142.761	-45.82	64.24	-179.79	30.184	-23.520	-18.326	-0.41733	-0.68488	-0.28903	0.52258	23.4	13111	100
2025-5-25 10:3:42.526	WT901BLE68(801231B9234C)	-0.794	0.696	0.072	66.467	230.957	-95.764	-54.07	65.63	170.15	30.184	-23.520	-18.326	-0.41733	-0.68488	-0.28903	0.52258	23.4	13111	100
2025-5-25 10:3:42.526	WT901BLE68(801231B9234C)	-0.723	0.492	0.058	83.984	235.840	-57.434	-63.02	67.35	159.05	30.184	-23.520	-18.326	-0.41733	-0.68488	-0.28903	0.52258	23.4	13111	100
2025-5-25 10:3:42.545	WT901BLE68(801231B9234C)	-0.459	0.497	0.094	85.266	179.138	-30.640	-71.18	68.72	148.84	28.616	-13.720	-24.010	-0.41733	-0.68488	-0.28903	0.52258	23.4	13111	100
2025-5-25 10:3:42.546	WT901BLE68(801231B9234C)	0.004	0.647	0.058	85.938	71.350	-6.897	-75.32	69.57	143.05	28.616	-13.720	-24.010	-0.41733	-0.68488	-0.28903	0.52258	23.4	13111	100
2025-5-25 10:3:42.588	WT901BLE68(801231B9234C)	0.375	0.779	0.029	71.045	-30.762	-4.211	-74.31	70.10	143.14	28.616	-13.720	-24.010	-0.41733	-0.68488	-0.28903	0.52258	23.4	13111	100
2025-5-25 10:3:42.588	WT901BLE68(801231B9234C)	0.676	0.862	-0.029	42.358	-81.543	-24.963	-70.67	69.92	146.75	28.616	-13.720	-24.010	-0.41733	-0.68488	-0.28903	0.52258	23.4	13111	100
2025-5-25 10:3:42.633	WT901BLE68(801231B9234C)	0.506	0.774	-0.008	49.683	-51.453	-19.775	-67.78	69.64	149.84	28.616	-13.720	-24.010	-0.41733	-0.68488	-0.28903	0.52258	23.4	13111	100
2025-5-25 10:3:42.634	WT901BLE68(801231B9234C)	0.223	0.807	-0.052	25.146	-24.170	2.930	-66.89	69.90	151.17	28.616	-13.720	-24.010	-0.41733	-0.68488	-0.28903	0.52258	23.4	13111	100
2025-5-25 10:3:42.677	WT901BLE68(801231B9234C)	-0.122	1.023	-0.207	-14.648	21.179	60.181	-67.89	71.35	151.11	28.616	-13.720	-24.010	-0.41733	-0.68488	-0.28903	0.52258	23.4	13111	100
2025-5-25 10:3:42.677	WT901BLE68(801231B9234C)	-0.601	1.238	-0.062	-75.806	41.016	156.677	-70.15	74.62	150.83	28.616	-13.720	-24.010	-0.41733	-0.68488	-0.28903	0.52258	23.4	13111	100
2025-5-25 10:3:42.725	WT901BLE68(801231B9234C)	-2.105	0.857	0.124	-147.827	29.724	220.276	-72.37	79.31	152.01	28.616	-13.720	-24.010	-0.41733	-0.68488	-0.28903	0.52258	23.4	13111	100
2025-5-25 10:3:42.726	WT901BLE68(801231B9234C)	-3.341	1.082	0.194	-179.199	111.694	263.977	-80.96	85.16	147.62	28.616	-13.720	-24.010	-0.41733	-0.68488	-0.28903	0.52258	23.4	13111	100
2025-5-25 10:3:42.750	WT901BLE68(801231B9234C)	-2.966	0.912	0.548	-196.350	116.150	361.267	139.35	87.67	12.67	28.616	-13.720	-24.010	-0.33307	-0.65509	-0.30695	0.60464	23.4	13111	100
2025-5-25 10:3:42.750	WT901BLE68(801231B9234C)	-2.685	0.757	0.714	-146.545	131.042	257.141	115.37	81.08	-7.53	28.616	-13.720	-24.010	-0.33307	-0.65509	-0.30695	0.60464	23.4	13111	100
2025-5-25 10:3:42.791	WT901BLE68(801231B9234C)	-2.552	0.294	0.780	-145.447	175.354	166.504	117.14	75.98	-2.41	28.616	-13.720	-24.010	-0.33307	-0.65509	-0.30695	0.60464	23.4	13111	100
2025-5-25 10:3:42.791	WT901BLE68(801231B9234C)	-1.994	-0.291	0.703	-140.076	116.760	124.146	117.70	72.24	1.07	28.616	-13.720	-24.010	-0.33307	-0.65509	-0.30695	0.60464	23.4	13111	100
2025-5-25 10:3:42.835	WT901BLE68(801231B9234C)	-1.437	-0.371	0.516	-127.014	23.132	115.601	114.48	69.82	0.15	28.616	-13.720	-24.010	-0.33307	-0.65509	-0.30695	0.60464	23.4	13111	100
2025-5-25 10:3:42.836	WT901BLE68(801231B9234C)	-0.998	-0.518	0.384	-105.530	-21.545	102.722	109.28	68.15	-3.37	28.616	-13.720	-24.010	-0.33307	-0.65509	-0.30695	0.60464	23.4	13111	100
2025-5-25 10:3:42.880	WT901BLE68(801231B9234C)	-0.619	-0.692	0.392	-97.107	-39.307	85.144	104.21	66.93	-7.14	28.616	-13.720	-24.010	-0.33307	-0.65509	-0.30695	0.60464	23.4	13111	100
2025-5-25 10:3:42.880	WT901BLE68(801231B9234C)	-0.287	-0.751	0.414	-83.374	-33.264	70.984	100.13	65.97	-10.22	28.616	-13.720	-24.010	-0.33307	-0.65509	-0.30695	0.60464	23.4	13111	100
2025-5-25 10:3:42.905	WT901BLE68(801231B9234C)	-0.020	-0.866	0.377	-63.232	-47.180	58.472	96.60	65.26	-13.15	28.616	-13.720	-24.010	-0.33307	-0.65509	-0.30695	0.60464	23.4	13111	100
2025-5-25 10:3:42.905	WT901BLE68(801231B9234C)	0.102	-1.007	0.373	-44.617	-77.515	39.429	92.69	64.93	-16.96	28.616	-13.720	-24.010	-0.33307	-0.65509	-0.30695	0.60464	23.4	13111	100
2025-5-25 10:3:42.971	WT901BLE68(801231B9234C)	0.157	-1.106	0.333	-25.757	-91.125	3.113	88.35	65.21	-21.68	26.852	-24.206	-20.678	-0.33307	-0.65509	-0.30695	0.60464	23.4	13111	100
2025-5-25 10:3:42.971	WT901BLE68(801231B9234C)	-0.054	-1.183	0.222	8.545	-49.072	-27.588	85.40	66.24	-25.40	26.852	-24.206	-20.678	-0.33307	-0.65509	-0.30695	0.60464	23.4	13111	100
2025-5-25 10:3:42.995	WT901BLE68(801231B9234C)	-0.472	-1.121	0.211	53.345	-16.235	-61.096	84.88	67.96	-27.26	26.852	-24.206	-20.678	-0.33307	-0.65509	-0.30695	0.60464	23.4	13111	100
2025-5-25 10:3:42.995	WT901BLE68(801231B9234C)	-0.873	-0.830	0.282	87.769	-50.903	-109.314	84.30	70.57	-29.97	26.852	-24.206	-20.678	-0.33307	-0.65509	-0.30695	0.60464	23.4	13111	100
2025-5-25 10:3:43.38	WT901BLE68(801231B9234C)	-1.312	-0.518	0.274	101.257	-109.741	-149.170	79.79	73.84	-37.18	26.852	-24.206	-20.678	-0.33307	-0.65509	-0.30695	0.60464	23.4	13111	100
2025-5-25 10:3:43.38	WT901BLE68(801231B9234C)	-2.442	-0.494	0.384	101.013	-145.447	-170.532	68.48	77.00	-51.41	26.852	-24.206	-20.678	-0.33307	-0.65509	-0.30695	0.60464	23.4	13111	100
2025-5-25 10:3:43.83	WT901BLE68(801231B9234C)	-3.154	-0.583	0.826	91.370	-151.978	-207.458	48.07	79.36	-74.58	26.852	-24.206	-20.678	-0.33307	-0.65509	-0.30695	0.60464	23.4	13111	100
2025-5-25 10:3:43.83	WT901BLE68(801231B9234C)	-3.533	0.025	0.692	65.918	-245.361	-179.749	20.98	78.33	-104.10	26.852	-24.206	-20.678	-0.33307	-0.65509	-0.30695	0.60464	23.4	13111	100
2025-5-25 10:3:43.107	WT901BLE68(801231B9234C)	-2.646	0.708	0.629	56.213	-292.847	-212.219	2.06	73.73	-125.10	26.852	-24.206	-20.678	-0.33307	-0.65509	-0.30695	0.60464	23.4	13111	100
2025-5-25 10:3:43.108	WT901BLE68(801231B9234C)	-1.889	1.412	0.815	77.454	-212.708	-226.501	-8.73	68.42	-138.30	26.852	-24.206	-20.678	-0.33307	-0.65509	-0.30695	0.60464	23.4	13111	100
2025-5-25 10:3:43.174	WT901BLE68(801231B9234C)	-1.640	1.577	0.737	48.584	-39.307	-214.294	-16.00	65.57	-147.70	26.852	-24.206	-20.678	-0.28549	-0.47845	-0.26306	0.78757	23.4	13111	100
2025-5-25 10:3:43.174	WT901BLE68(801231B9234C)	-0.999	1.121	0.428	57.556	95.276	-190.186	-23.58	65.41	-157.19	26.852	-24.206	-20.678	-0.28549	-0.47845	-0.26306	0.78757	23.4	13111	100
2025-5-25 10:3:43.197	WT901BLE68(801231B9234C)	-0.577	1.115	0.215	79.529	153.320	-136.902	-30.32	66.64	-166.07	26.852	-24.206	-20.678	-0.28549	-0.47845	-0.26306	0.78757	23.4	13111	100
2025-5-25 10:3:43.198	WT901BLE68(801231B9234C)	-0.426	0.864	0.119	97.229	196.472	-117.676	-37.55	68.61	-175.59	26.852	-24.206	-20.678	-0.28549	-0.47845	-0.26306	0.78757	23.4	13111	100
2025-5-25 10:3:43.241	WT901BLE68(801231B9234C)	-0.396	0.760	0.008	106.873	180.725	-99.426	-45.77	70.52	173.85	26.852	-24.206	-20.678	-0.28549	-0.47845	-0.26306	0.78757	23.4	13111	100
2025-5-25 10:3:43.241	WT901BLE68(801231B9234C)	-0.039	0.891	-0.063	98.083	79.224	-84.229	-51.75	71.26	165.99	26.852	-24.206	-20.678	-0.28549	-0.47845	-0.26306	0.78757	23.4	13111	100
2025-5-25 10:3:43.285	WT901BLE68(801231B9234C)	0.519	0.883	-0.125	88.013	-10.803	-62.622	-53.23	70.87	163.32	26.852	-24.206	-20.678	-0.28549	-0.47845	-0.26306	0.78757	23.4	13111	100
2025-5-25 10:3:43.285	WT901BLE68(801231B9234C)	0.868	0.989	-0.162	57.007	-44.739	-51.819	-52.42	70.19	163.66	26.852	-24.206	-20.678	-0.28549	-0.47845	-0.26306	0.78757	23.4	13111	100
2025-5-25 10:3:43.311	WT901BLE68(801231B9234C)	0.625	0.838	-0.088	27.405	-5.371	-30.640	-52.57	70.01	163.68	26.852	-24.206	-20.678	-0.28549	-0.47845	-0.26306	0.78757	23.4	13111	100
2025-5-25 10:3:43.311	WT901BLE68(801231B9234C)	0.195	0.669	-0.005	1.404	57.007	26.550	-54.66	71.31	162.24	26.852	-24.206	-20.678	-0.28549	-0.47845	-0.26306	0.78757	23.4	13111	100
2025-5-25 10:3:43.357	WT901BLE68(801231B9234C)	-0.332	1.041	0.000	-40.527	84.229	83.740	-58.26	74.11	159.91	30.674	-10.094	-20.874	-0.28549	-0.47845	-0.26306	0.78757	23.4	13111	100
2025-5-25 10:3:43.357	WT901BLE68(801231B9234C)	-0.666	1.152	0.130	-99.548	75.806	119.202	-62.68	77.73	157.88	30.674	-10.094	-20.874	-0.28549	-0.47845	-0.26306	0.78757	23.4	13111	100
2025-5-25 10:3:43.398	WT901BLE68(801231B9234C)	-1.426	0.801	0.410	-145.813	42.847	142.395	-66.45	81.48	157.59	30.674	-10.094	-20.874	-0.28549	-0.47845	-0.26306	0.78757	23.4	13111	100
2025-5-25 10:3:43.398	WT901BLE68(801231B9234C)	-2.470	0.456	0.706	-164.063	63.232	143.250	-71.71	85.24	156.38	30.674	-10.094	-20.874	-0.28549	-0.47845	-0.26306	0.78757	23.4	13111	100
2025-5-25 10:3:43.443	WT901BLE68(801231B9234C)	-2.940	0.426	0.777	-177.124	73.914	208.984	-111.49	89.52	121.05	30.674	-10.094	-20.874	-0.28549	-0.47845	-0.26306	0.78757	23.4	13111	100
2025-5-25 10:3:43.444	WT901BLE68(801231B9234C)	-2.688	0.603	0.885	-170.166	36.743	226.624	107.26	86.17	-15.89	30.674	-10.094	-20.874	-0.28549	-0.47845	-0.26306	0.78757	23.4	13111	100
2025-5-25 10:3:43.487	WT901BLE68(801231B9234C)	-2.394	0.487	0.962	-161.621	61.523	216.003	100.48	81.44	-18.72	30.674	-10.094	-20.874	-0.28549	-0.47845	-0.26306	0.78757	23.4	13111	100
2025-5-25 10:3:43.487	WT901BLE68(801231B9234C)	-2.139	0.086	0.642	-151.428	156.677	193.787	103.73	76.70	-11.79	30.674	-10.094	-20.874	-0.28549	-0.47845	-0.26306	0.78757	23.4	13111	100
2025-5-25 10:3:43.513	WT901BLE68(801231B9234C)	-1.523	-0.286	0.570	-138.733	125.977	155.579	106.42	72.62	-5.73	30.674	-10.094	-20.874	-0.28549	-0.47845	-0.26306	0.78757	23.4	13111	100
2025-5-25 10:3:43.513	WT901BLE68(801231B9234C)	-0.901	-0.523	0.465	-119.446	44.861	118.408	105.24	69.82	-4.26	30.674	-10.094	-20.874	-0.28549	-0.47845	-0.26306	0.78757	23.4	13111	100
2025-5-25 10:3:43.556	WT901BLE68(801231B9234C)	-0.466	-0.644	0.399	-94.849	-4.517	101.624	101.85	67.96	-5.80	30.674	-10.094	-20.874	-0.50763	-0.66257	-0.31125	0.45422	23.4	13111	100
2025-5-25 10:3:43.557	WT901BLE68(801231B9234C)	-0.266	-0.801	0.355	-81.909	-33.875	86.243	97.88	66.56	-8.50	30.674	-10.094	-20.874	-0.50763	-0.66257	-0.31125	0.45422	23.4	13111	100
2025-5-25 10:3:43.603	WT901BLE68(801231B9234C)	-0.095	-0.887	0.348	-59.937	-60.547	59.875	93.78	65.70	-11.89	30.674	-10.094	-20.874	-0.50763	-0.66257	-0.31125	0.45422	23.4	13111	100
2025-5-25 10:3:43.604	WT901BLE68(801231B9234C)	0.130	-0.968	0.381	-40.588	-94.788	31.555	89.10	65.44	-16.49	30.674	-10.094	-20.874	-0.50763	-0.66257	-0.31125	0.45422	23.4	13111	100
2025-5-25 10:3:43.647	WT901BLE68(801231B9234C)	0.179	-1.072	0.281	-24.902	-122.437	-15.076	83.41	65.86	-22.57	30.674	-10.094	-20.874	-0.50763	-0.66257	-0.31125	0.45422	23.4	13111	100
2025-5-25 10:3:43.647	WT901BLE68(801231B9234C)	0.134	-0.393	0.012	-15.808	-105.530	-51.270	77.55	66.90	-29.12	30.674	-10.094	-20.874	-0.50763	-0.66257	-0.31125	0.45422	23.4	13111	100
2025-5-25 10:3:43.670	WT901BLE68(801231B9234C)	-0.153	-1.108	0.120	30.029	-62.317	-78.247	73.17	68.59	-34.62	30.674	-10.094	-20.874	-0.50763	-0.66257	-0.31125	0.45422	23.4	13111	100
2025-5-25 10:3:43.670	WT901BLE68(801231B9234C)	-0.516	-0.841	0.192	68.176	-51.331	-114.014	69.34	70.99	-40.23	30.674	-10.094	-20.874	-0.50763	-0.66257	-0.31125	0.45422	23.4	13111	100
2025-5-25 10:3:43.715	WT901BLE68(801231B9234C)	-1.041	-0.608	0.227	90.332	-50.110	-146.484	63.93	73.88	-47.92	30.674	-10.094	-20.874	-0.50763	-0.66257	-0.31125	0.45422	23.4	13111	100
2025-5-25 10:3:43.715	WT901BLE68(801231B9234C)	-2.450	-0.666	0.145	101.074	-33.875	-176.086	55.44	77.05	-58.86	15.778	-8.330	-28.714	-0.50763	-0.66257	-0.31125	0.45422	23.4	13111	100
2025-5-25 10:3:43.759	WT901BLE68(801231B9234C)	-3.664	-0.990	0.355	112.793	-1.587	-204.468	42.54	80.34	-74.33	15.778	-8.330	-28.714	-0.50763	-0.66257	-0.31125	0.45422	23.4	13111	100
2025-5-25 10:3:43.759	WT901BLE68(801231B9234C)	-3.508	-0.344	0.091	158.020	-121.277	-202.026	17.78	81.61	-102.22	15.778	-8.330	-28.714	-0.50763	-0.66257	-0.31125	0.45422	23.4	13111	100
2025-5-25 10:3:43.803	WT901BLE68(801231B9234C)	-2.804	0.418	0.119	197.693	-174.438	-250.732	-6.29	78.69	-130.41	15.778	-8.330	-28.714	-0.50763	-0.66257	-0.31125	0.45422	23.4	13111	100
2025-5-25 10:3:43.803	WT901BLE68(801231B9234C)	-2.290	0.965	0.376	207.214	-123.535	-281.616	-21.59	74.54	-150.16	15.778	-8.330	-28.714	-0.50763	-0.66257	-0.31125	0.45422	23.4	13111	100
2025-5-25 10:3:43.849	WT901BLE68(801231B9234C)	-1.642	1.872	0.488	198.547	-39.612	-246.155	-30.42	71.05	-163.64	15.778	-8.330	-28.714	-0.50763	-0.66257	-0.31125	0.45422	23.4	13111	100
2025-5-25 10:3:43.849	WT901BLE68(801231B9234C)	-1.179	1.381	0.543	157.349	39.551	-188.538	-36.52	69.26	-173.56	15.778	-8.330	-28.714	-0.50763	-0.66257	-0.31125	0.45422	23.4	13111	100
2025-5-25 10:3:43.872	WT901BLE68(801231B9234C)	-0.643	1.244	0.409	148.376	77.515	-137.146	-41.30	68.62	178.22	15.778	-8.330	-28.714	-0.50763	-0.66257	-0.31125	0.45422	23.4	13111	100
2025-5-25 10:3:43.873	WT901BLE68(801231B9234C)	-0.315	1.146	0.285	120.911	120.239	-87.158	-45.41	69.05	171.18	15.778	-8.330	-28.714	-0.50763	-0.66257	-0.31125	0.45422	23.4	13111	100
2025-5-25 10:3:43.926	WT901BLE68(801231B9234C)	-0.166	0.961	0.256	96.558	157.288	-63.293	-51.01	70.39	163.15	15.778	-8.330	-28.714	-0.50763	-0.66257	-0.31125	0.45422	23.4	13111	100
2025-5-25 10:3:43.926	WT901BLE68(801231B9234C)	0.031	0.977	0.166	70.129	131.287	-46.326	-57.05	71.75	155.24	15.778	-8.330	-28.714	-0.11002	-0.59088	-0.26468	0.75406	23.4	13111	100
2025-5-25 10:3:43.963	WT901BLE68(801231B9234C)	0.371	0.908	0.111	30.518	63.354	-39.001	-61.44	72.57	149.91	15.778	-8.330	-28.714	-0.11002	-0.59088	-0.26468	0.75406	23.4	13111	100
2025-5-25 10:3:43.964	WT901BLE68(801231B9234C)	0.692	0.849	0.125	-6.104	23.254	-24.536	-63.50	72.98	147.96	15.778	-8.330	-28.714	-0.11002	-0.59088	-0.26468	0.75406	23.4	13111	100
2025-5-25 10:3:44.6	WT901BLE68(801231B9234C)	0.458	0.680	0.103	-49.316	27.527	13.245	-65.81	73.90	146.88	15.778	-8.330	-28.714	-0.11002	-0.59088	-0.26468	0.75406	23.4	13111	100
2025-5-25 10:3:44.6	WT901BLE68(801231B9234C)	0.061	0.578	0.075	-84.534	36.438	55.664	-69.37	75.74	145.63	15.778	-8.330	-28.714	-0.11002	-0.59088	-0.26468	0.75406	23.4	13111	100
2025-5-25 10:3:44.51	WT901BLE68(801231B9234C)	-0.115	0.941	-0.034	-117.981	10.498	101.379	-73.02	78.23	145.03	15.778	-8.330	-28.714	-0.11002	-0.59088	-0.26468	0.75406	23.4	13111	100
2025-5-25 10:3:44.52	WT901BLE68(801231B9234C)	-0.648	1.056	-0.032	-154.053	-15.259	155.518	-73.09	81.60	148.78	15.778	-8.330	-28.714	-0.11002	-0.59088	-0.26468	0.75406	23.4	13111	100
2025-5-25 10:3:44.75	WT901BLE68(801231B9234C)	-2.138	0.896	0.168	-190.674	6.531	176.636	-70.65	85.64	155.60	15.778	-8.330	-28.714	-0.11002	-0.59088	-0.26468	0.75406	23.4	13111	100
2025-5-25 10:3:44.75	WT901BLE68(801231B9234C)	-3.089	1.076	0.364	-213.074	100.220	205.811	-117.28	90.31	113.76	15.778	-8.330	-28.714	-0.11002	-0.59088	-0.26468	0.75406	23.4	13111	100
2025-5-25 10:3:44.126	WT901BLE68(801231B9234C)	-2.827	0.798	0.504	-200.928	65.552	253.662	108.81	85.01	-15.54	15.778	-8.330	-28.714	-0.11002	-0.59088	-0.26468	0.75406	23.4	13111	100
2025-5-25 10:3:44.126	WT901BLE68(801231B9234C)	-2.295	0.704	0.738	-183.533	29.785	178.955	100.16	80.43	-20.51	18.620	-27.244	-21.070	-0.11002	-0.59088	-0.26468	0.75406	23.4	13111	100
2025-5-25 10:3:44.164	WT901BLE68(801231B9234C)	-2.032	0.283	0.865	-178.345	34.241	152.283	96.48	77.13	-20.67	18.620	-27.244	-21.070	-0.11002	-0.59088	-0.26468	0.75406	23.4	13111	100
2025-5-25 10:3:44.164	WT901BLE68(801231B9234C)	-1.813	-0.112	0.690	-170.349	53.528	144.592	94.30	73.98	-19.62	18.620	-27.244	-21.070	-0.11002	-0.59088	-0.26468	0.75406	23.4	13111	100
2025-5-25 10:3:44.208	WT901BLE68(801231B9234C)	-1.297	-0.371	0.591	-160.034	26.733	130.981	92.48	71.23	-18.28	18.620	-27.244	-21.070	-0.11002	-0.59088	-0.26468	0.75406	23.4	13111	100
2025-5-25 10:3:44.208	WT901BLE68(801231B9234C)	-0.854	-0.497	0.456	-136.780	-21.729	109.070	88.62	69.04	-19.62	18.620	-27.244	-21.070	-0.11002	-0.59088	-0.26468	0.75406	23.4	13111	100
2025-5-25 10:3:44.254	WT901BLE68(801231B9234C)	-0.523	-0.548	0.411	-125.488	-16.174	86.914	84.85	67.31	-21.22	18.620	-27.244	-21.070	-0.11002	-0.59088	-0.26468	0.75406	23.4	13111	100
2025-5-25 10:3:44.254	WT901BLE68(801231B9234C)	-0.228	-0.631	0.309	-111.816	-8.484	68.787	82.05	66.09	-22.05	18.620	-27.244	-21.070	-0.11002	-0.59088	-0.26468	0.75406	23.4	13111	100
2025-5-25 10:3:44.277	WT901BLE68(801231B9234C)	-0.057	-0.771	0.192	-96.741	-14.343	56.396	79.66	65.19	-22.82	18.620	-27.244	-21.070	-0.11002	-0.59088	-0.26468	0.75406	23.4	13111	100
2025-5-25 10:3:44.278	WT901BLE68(801231B9234C)	0.002	-1.005	0.168	-75.562	-36.987	33.508	76.96	64.64	-24.35	18.620	-27.244	-21.070	-0.11002	-0.59088	-0.26468	0.75406	23.4	13111	100
2025-5-25 10:3:44.326	WT901BLE68(801231B9234C)	0.138	-1.181	0.112	-36.865	-66.528	-6.226	73.46	64.73	-27.44	18.620	-27.244	-21.070	-0.11002	-0.59088	-0.26468	0.75406	23.4	13111	100
2025-5-25 10:3:44.327	WT901BLE68(801231B9234C)	0.103	-1.203	0.020	16.541	-76.416	-40.710	69.60	65.48	-31.94	18.620	-27.244	-21.070	-0.57074	-0.58292	-0.28784	0.50150	23.4	13111	100
2025-5-25 10:3:44.366	WT901BLE68(801231B9234C)	-0.159	-1.123	0.058	68.237	-62.683	-81.055	66.32	66.98	-36.90	18.620	-27.244	-21.070	-0.57074	-0.58292	-0.28784	0.50150	23.4	13111	100
2025-5-25 10:3:44.367	WT901BLE68(801231B9234C)	-0.551	-0.919	0.153	123.657	-79.468	-132.813	62.11	69.22	-43.84	18.620	-27.244	-21.070	-0.57074	-0.58292	-0.28784	0.50150	23.4	13111	100
2025-5-25 10:3:44.411	WT901BLE68(801231B9234C)	-1.179	-0.548	0.299	159.241	-91.919	-186.646	55.55	71.92	-54.26	18.620	-27.244	-21.070	-0.57074	-0.58292	-0.28784	0.50150	23.4	13111	100
2025-5-25 10:3:44.411	WT901BLE68(801231B9234C)	-2.420	-0.402	0.564	151.184	-104.248	-220.520	43.34	74.48	-70.44	18.620	-27.244	-21.070	-0.57074	-0.58292	-0.28784	0.50150	23.4	13111	100
2025-5-25 10:3:44.456	WT901BLE68(801231B9234C)	-3.257	-0.686	1.210	126.221	-134.949	-235.840	25.69	75.61	-91.67	18.620	-27.244	-21.070	-0.57074	-0.58292	-0.28784	0.50150	23.4	13111	100
2025-5-25 10:3:44.457	WT901BLE68(801231B9234C)	-2.966	-0.164	1.127	93.506	-303.833	-209.106	7.06	72.40	-113.35	18.620	-27.244	-21.070	-0.57074	-0.58292	-0.28784	0.50150	23.4	13111	100
2025-5-25 10:3:44.480	WT901BLE68(801231B9234C)	-2.081	0.273	1.183	65.247	-342.834	-225.952	-3.67	65.72	-126.75	18.620	-27.244	-21.070	-0.57074	-0.58292	-0.28784	0.50150	23.4	13111	100
2025-5-25 10:3:44.480	WT901BLE68(801231B9234C)	-1.732	0.678	1.344	41.077	-229.126	-234.070	-10.48	59.69	-135.60	18.620	-27.244	-21.070	-0.57074	-0.58292	-0.28784	0.50150	23.4	13111	100
2025-5-25 10:3:44.525	WT901BLE68(801231B9234C)	-1.516	1.607	1.186	22.949	-44.922	-203.064	-15.68	56.58	-142.81	18.620	-27.244	-21.070	-0.57074	-0.58292	-0.28784	0.50150	23.4	13111	100
2025-5-25 10:3:44.525	WT901BLE68(801231B9234C)	-1.138	1.347	0.789	-20.508	112.854	-135.193	-20.28	56.99	-148.18	8.330	-23.030	-27.244	-0.57074	-0.58292	-0.28784	0.50150	23.4	13111	100
2025-5-25 10:3:44.571	WT901BLE68(801231B9234C)	-0.699	0.902	0.494	14.893	160.339	-99.121	-24.81	58.99	-153.67	8.330	-23.030	-27.244	-0.57074	-0.58292	-0.28784	0.50150	23.4	13111	100
2025-5-25 10:3:44.571	WT901BLE68(801231B9234C)	-0.435	0.693	0.332	42.969	192.505	-81.360	-28.97	61.60	-159.36	8.330	-23.030	-27.244	-0.57074	-0.58292	-0.28784	0.50150	23.4	13111	100
2025-5-25 10:3:44.613	WT901BLE68(801231B9234C)	-0.259	0.515	0.203	65.796	210.815	-80.688	-33.82	64.48	-166.18	8.330	-23.030	-27.244	-0.57074	-0.58292	-0.28784	0.50150	23.4	13111	100
2025-5-25 10:3:44.613	WT901BLE68(801231B9234C)	-0.102	0.587	0.091	80.688	200.317	-79.163	-39.52	67.09	-174.18	8.330	-23.030	-27.244	-0.57074	-0.58292	-0.28784	0.50150	23.4	13111	100
2025-5-25 10:3:44.637	WT901BLE68(801231B9234C)	0.097	0.764	-0.023	79.651	143.982	-74.829	-44.98	68.84	178.23	8.330	-23.030	-27.244	-0.57074	-0.58292	-0.28784	0.50150	23.4	13111	100
2025-5-25 10:3:44.638	WT901BLE68(801231B9234C)	0.468	0.942	-0.102	60.730	56.946	-74.158	-48.67	69.44	173.02	8.330	-23.030	-27.244	-0.57074	-0.58292	-0.28784	0.50150	23.4	13111	100
2025-5-25 10:3:44.681	WT901BLE68(801231B9234C)	0.530	0.896	-0.017	34.729	-4.089	-52.917	-49.75	69.36	171.46	8.330	-23.030	-27.244	-0.57074	-0.58292	-0.28784	0.50150	23.4	13111	100
2025-5-25 10:3:44.681	WT901BLE68(801231B9234C)	0.353	0.688	-0.050	4.517	-15.869	-14.038	-49.98	69.47	171.78	8.330	-23.030	-27.244	-0.57074	-0.58292	-0.28784	0.50150	23.4	13111	100
2025-5-25 10:3:44.729	WT901BLE68(801231B9234C)	0.085	0.814	-0.001	-24.719	9.338	59.082	-49.58	70.82	173.41	8.330	-23.030	-27.244	-0.57074	-0.58292	-0.28784	0.50150	23.4	13111	100
2025-5-25 10:3:44.729	WT901BLE68(801231B9234C)	-0.583	1.073	0.257	-76.355	20.691	147.644	-47.42	73.71	177.81	8.330	-23.030	-27.244	-0.25275	-0.56073	-0.31061	0.72464	23.4	13111	100
2025-5-25 10:3:44.773	WT901BLE68(801231B9234C)	-1.878	0.960	0.380	-143.250	22.827	195.068	-41.72	77.41	-172.83	8.330	-23.030	-27.244	-0.25275	-0.56073	-0.31061	0.72464	23.4	13111	100
2025-5-25 10:3:44.773	WT901BLE68(801231B9234C)	-2.735	1.015	0.539	-181.091	60.730	245.667	-27.66	81.57	-154.19	8.330	-23.030	-27.244	-0.25275	-0.56073	-0.31061	0.72464	23.4	13111	100
2025-5-25 10:3:44.816	WT901BLE68(801231B9234C)	-2.809	0.800	1.047	-177.429	45.044	302.063	14.11	83.92	-107.55	8.330	-23.030	-27.244	-0.25275	-0.56073	-0.31061	0.72464	23.4	13111	100
2025-5-25 10:3:44.816	WT901BLE68(801231B9234C)	-2.532	0.757	1.186	-139.404	81.421	214.722	50.47	81.64	-67.61	8.330	-23.030	-27.244	-0.25275	-0.56073	-0.31061	0.72464	23.4	13111	100
2025-5-25 10:3:44.841	WT901BLE68(801231B9234C)	-2.160	0.298	1.065	-134.094	135.925	171.936	69.35	79.38	-45.64	8.330	-23.030	-27.244	-0.25275	-0.56073	-0.31061	0.72464	23.4	13111	100
2025-5-25 10:3:44.841	WT901BLE68(801231B9234C)	-1.857	-0.199	0.795	-112.183	149.414	165.039	82.25	76.60	-30.20	8.330	-23.030	-27.244	-0.25275	-0.56073	-0.31061	0.72464	23.4	13111	100
2025-5-25 10:3:44.883	WT901BLE68(801231B9234C)	-1.419	-0.513	0.600	-96.375	123.657	139.099	89.96	73.78	-20.42	8.330	-23.030	-27.244	-0.25275	-0.56073	-0.31061	0.72464	23.4	13111	100
2025-5-25 10:3:44.883	WT901BLE68(801231B9234C)	-0.959	-0.644	0.501	-86.670	61.279	105.286	92.54	71.55	-16.21	8.330	-23.030	-27.244	-0.25275	-0.56073	-0.31061	0.72464	23.4	13111	100
2025-5-25 10:3:44.931	WT901BLE68(801231B9234C)	-0.613	-0.659	0.445	-77.393	14.771	81.665	91.92	69.98	-15.63	8.330	-23.030	-27.244	-0.25275	-0.56073	-0.31061	0.72464	23.4	13111	100
2025-5-25 10:3:44.931	WT901BLE68(801231B9234C)	-0.296	-0.700	0.416	-71.533	-19.470	67.444	89.51	68.90	-17.08	21.756	-22.638	-22.540	-0.25275	-0.56073	-0.31061	0.72464	23.4	13111	100
2025-5-25 10:3:44.973	WT901BLE68(801231B9234C)	-0.001	-0.737	0.359	-67.017	-53.345	51.575	85.86	68.13	-20.05	21.756	-22.638	-22.540	-0.25275	-0.56073	-0.31061	0.72464	23.4	13111	100
2025-5-25 10:3:44.974	WT901BLE68(801231B9234C)	0.194	-0.957	0.307	-56.580	-77.881	31.372	81.24	67.64	-24.30	21.756	-22.638	-22.540	-0.25275	-0.56073	-0.31061	0.72464	23.4	13111	100
2025-5-25 10:3:45.28	WT901BLE68(801231B9234C)	0.322	-1.075	0.195	-51.208	-86.792	-5.981	75.94	67.71	-29.37	21.756	-22.638	-22.540	-0.25275	-0.56073	-0.31061	0.72464	23.4	13111	100
2025-5-25 10:3:45.28	WT901BLE68(801231B9234C)	0.206	-1.113	0.073	-10.193	-65.125	-35.828	71.11	68.44	-34.50	21.756	-22.638	-22.540	-0.25275	-0.56073	-0.31061	0.72464	23.4	13111	100
2025-5-25 10:3:45.43	WT901BLE68(801231B9234C)	-0.087	-1.019	0.008	28.259	-44.067	-69.885	67.26	69.94	-39.29	21.756	-22.638	-22.540	-0.25275	-0.56073	-0.31061	0.72464	23.4	13111	100
2025-5-25 10:3:45.43	WT901BLE68(801231B9234C)	-0.398	-0.773	0.068	73.425	-44.128	-103.577	63.41	72.07	-44.94	21.756	-22.638	-22.540	-0.25275	-0.56073	-0.31061	0.72464	23.4	13111	100
2025-5-25 10:3:45.86	WT901BLE68(801231B9234C)	-0.743	-0.503	0.139	99.670	-64.575	-142.090	56.81	74.52	-54.04	21.756	-22.638	-22.540	-0.25275	-0.56073	-0.31061	0.72464	23.4	13111	100
2025-5-25 10:3:45.86	WT901BLE68(801231B9234C)	-1.717	-0.346	0.267	92.712	-60.364	-173.462	45.55	76.93	-67.94	21.756	-22.638	-22.540	-0.25275	-0.56073	-0.31061	0.72464	23.4	13111	100
2025-5-25 10:3:45.133	WT901BLE68(801231B9234C)	-3.670	-0.762	0.777	72.632	-28.564	-213.013	28.47	79.15	-87.30	21.756	-22.638	-22.540	-0.25275	-0.56073	-0.31061	0.72464	23.4	13111	100
2025-5-25 10:3:45.133	WT901BLE68(801231B9234C)	-3.977	-0.722	1.013	46.387	-133.179	-158.508	8.39	79.21	-109.25	21.756	-22.638	-22.540	-0.25275	-0.56073	-0.31061	0.72464	23.4	13111	100
2025-5-25 10:3:45.178	WT901BLE68(801231B9234C)	-2.667	0.397	0.736	59.509	-276.855	-167.419	-5.15	74.47	-124.60	21.756	-22.638	-22.540	-0.39261	-0.51685	-0.30774	0.69565	23.4	13111	100
2025-5-25 10:3:45.178	WT901BLE68(801231B9234C)	-1.814	0.509	0.945	68.176	-186.584	-195.435	-12.50	69.28	-134.01	21.756	-22.638	-22.540	-0.39261	-0.51685	-0.30774	0.69565	23.4	13111	100
2025-5-25 10:3:45.227	WT901BLE68(801231B9234C)	-1.653	1.855	0.883	60.913	28.076	-185.303	-19.10	67.19	-142.88	21.756	-22.638	-22.540	-0.39261	-0.51685	-0.30774	0.69565	23.4	13111	100
2025-5-25 10:3:45.227	WT901BLE68(801231B9234C)	-1.202	1.101	0.583	19.287	206.299	-169.922	-28.88	68.68	-154.20	21.756	-22.638	-22.540	-0.39261	-0.51685	-0.30774	0.69565	23.4	13111	100
2025-5-25 10:3:45.245	WT901BLE68(801231B9234C)	-0.680	0.622	0.414	79.102	218.567	-121.582	-39.70	70.90	-166.98	21.756	-22.638	-22.540	-0.39261	-0.51685	-0.30774	0.69565	23.4	13111	100
2025-5-25 10:3:45.245	WT901BLE68(801231B9234C)	-0.398	0.735	0.313	110.596	225.220	-79.102	-49.88	72.96	-179.89	21.756	-22.638	-22.540	-0.39261	-0.51685	-0.30774	0.69565	23.4	13111	100
2025-5-25 10:3:45.288	WT901BLE68(801231B9234C)	-0.178	0.709	0.321	123.779	237.000	-66.162	-61.97	74.73	165.03	21.756	-22.638	-22.540	-0.39261	-0.51685	-0.30774	0.69565	23.4	13111	100
2025-5-25 10:3:45.288	WT901BLE68(801231B9234C)	-0.010	0.804	0.261	131.409	214.111	-55.725	-75.25	75.67	148.64	21.756	-22.638	-22.540	-0.39261	-0.51685	-0.30774	0.69565	23.4	13111	100
2025-5-25 10:3:45.335	WT901BLE68(801231B9234C)	0.161	1.016	0.187	121.155	125.427	-48.645	-84.79	75.77	136.33	21.756	-22.638	-22.540	-0.39261	-0.51685	-0.30774	0.69565	23.4	13111	100
2025-5-25 10:3:45.335	WT901BLE68(801231B9234C)	0.440	1.016	0.142	96.619	-13.062	-55.359	-86.01	75.44	133.53	21.756	-22.638	-22.540	-0.39261	-0.51685	-0.30774	0.69565	23.4	13111	100
2025-5-25 10:3:45.380	WT901BLE68(801231B9234C)	0.493	0.792	0.129	61.401	-104.980	-54.199	-81.47	74.69	137.85	28.910	-21.462	-13.720	-0.39261	-0.51685	-0.30774	0.69565	23.4	13111	100
2025-5-25 10:3:45.380	WT901BLE68(801231B9234C)	0.449	0.866	-0.043	22.339	-109.436	-19.104	-75.65	74.09	144.40	28.910	-21.462	-13.720	-0.39261	-0.51685	-0.30774	0.69565	23.4	13111	100
2025-5-25 10:3:45.403	WT901BLE68(801231B9234C)	0.187	1.006	-0.230	-43.640	-50.537	62.683	-72.88	74.89	148.82	28.910	-21.462	-13.720	-0.39261	-0.51685	-0.30774	0.69565	23.4	13111	100
2025-5-25 10:3:45.403	WT901BLE68(801231B9234C)	-0.678	1.038	-0.111	-117.065	-32.593	161.621	-71.62	77.82	153.01	28.910	-21.462	-13.720	-0.39261	-0.51685	-0.30774	0.69565	23.4	13111	100
2025-5-25 10:3:45.447	WT901BLE68(801231B9234C)	-2.228	0.943	-0.067	-213.623	-37.659	218.994	-66.26	82.24	162.94	28.910	-21.462	-13.720	-0.39261	-0.51685	-0.30774	0.69565	23.4	13111	100
2025-5-25 10:3:45.447	WT901BLE68(801231B9234C)	-3.058	1.110	0.167	-256.836	34.607	289.612	-43.85	87.31	-168.70	28.910	-21.462	-13.720	-0.39261	-0.51685	-0.30774	0.69565	23.4	13111	100
2025-5-25 10:3:45.491	WT901BLE68(801231B9234C)	-2.955	0.670	0.607	-257.263	64.087	350.098	79.70	85.57	-38.99	28.910	-21.462	-13.720	-0.39261	-0.51685	-0.30774	0.69565	23.4	13111	100
2025-5-25 10:3:45.491	WT901BLE68(801231B9234C)	-2.822	0.620	0.933	-197.449	113.403	233.582	90.55	79.69	-23.48	28.910	-21.462	-13.720	-0.39261	-0.51685	-0.30774	0.69565	23.4	13111	100
2025-5-25 10:3:45.537	WT901BLE68(801231B9234C)	-2.424	0.332	0.872	-165.100	175.659	165.588	98.36	75.61	-11.96	28.910	-21.462	-13.720	-0.39261	-0.51685	-0.30774	0.69565	23.4	13111	100
2025-5-25 10:3:45.538	WT901BLE68(801231B9234C)	-1.978	-0.168	0.681	-140.747	148.865	141.968	103.55	72.01	-3.81	28.910	-21.462	-13.720	-0.39261	-0.51685	-0.30774	0.69565	23.4	13111	100
2025-5-25 10:3:45.581	WT901BLE68(801231B9234C)	-1.391	-0.513	0.504	-112.854	59.265	113.281	103.90	69.31	-1.23	28.910	-21.462	-13.720	-0.50079	-0.65594	-0.33887	0.45166	23.4	13111	100
2025-5-25 10:3:45.581	WT901BLE68(801231B9234C)	-0.947	-0.625	0.422	-87.952	-13.367	98.267	101.07	67.52	-2.72	28.910	-21.462	-13.720	-0.50079	-0.65594	-0.33887	0.45166	23.4	13111	100
2025-5-25 10:3:45.605	WT901BLE68(801231B9234C)	-0.629	-0.646	0.332	-77.759	-38.208	81.360	97.21	66.20	-5.72	28.910	-21.462	-13.720	-0.50079	-0.65594	-0.33887	0.45166	23.4	13111	100
2025-5-25 10:3:45.605	WT901BLE68(801231B9234C)	-0.313	-0.677	0.275	-72.449	-40.161	69.763	93.59	65.17	-8.67	28.910	-21.462	-13.720	-0.50079	-0.65594	-0.33887	0.45166	23.4	13111	100
2025-5-25 10:3:45.648	WT901BLE68(801231B9234C)	-0.062	-0.771	0.254	-56.824	-38.269	59.509	90.63	64.35	-11.18	28.910	-21.462	-13.720	-0.50079	-0.65594	-0.33887	0.45166	23.4	13111	100
2025-5-25 10:3:45.648	WT901BLE68(801231B9234C)	0.097	-0.873	0.281	-41.504	-39.429	39.246	88.19	63.89	-13.50	28.910	-21.462	-13.720	-0.50079	-0.65594	-0.33887	0.45166	23.4	13111	100
2025-5-25 10:3:45.693	WT901BLE68(801231B9234C)	0.150	-0.983	0.330	-31.311	-41.931	7.385	85.96	64.02	-15.85	28.910	-21.462	-13.720	-0.50079	-0.65594	-0.33887	0.45166	23.4	13111	100
2025-5-25 10:3:45.694	WT901BLE68(801231B9234C)	0.066	-1.058	0.321	-11.292	-33.569	-40.833	83.98	65.12	-18.22	28.910	-21.462	-13.720	-0.50079	-0.65594	-0.33887	0.45166	23.4	13111	100
2025-5-25 10:3:45.741	WT901BLE68(801231B9234C)	-0.021	-0.818	0.181	8.240	-15.625	-71.960	82.80	67.07	-20.10	28.910	-21.462	-13.720	-0.50079	-0.65594	-0.33887	0.45166	23.4	13111	100
2025-5-25 10:3:45.741	WT901BLE68(801231B9234C)	-0.123	-0.862	0.007	34.180	-25.879	-98.694	81.81	69.61	-22.18	28.910	-21.462	-13.720	-0.50079	-0.65594	-0.33887	0.45166	23.4	13111	100
2025-5-25 10:3:45.783	WT901BLE68(801231B9234C)	-0.396	-0.741	-0.067	78.308	-48.035	-126.221	79.73	72.67	-26.14	17.934	-20.580	-19.600	-0.50079	-0.65594	-0.33887	0.45166	23.4	13111	100
2025-5-25 10:3:45.783	WT901BLE68(801231B9234C)	-1.159	-0.629	-0.027	105.347	-34.851	-157.104	76.62	76.18	-31.78	17.934	-20.580	-19.600	-0.50079	-0.65594	-0.33887	0.45166	23.4	13111	100
2025-5-25 10:3:45.828	WT901BLE68(801231B9234C)	-3.314	-0.758	0.238	101.196	4.883	-193.726	73.38	80.46	-37.57	17.934	-20.580	-19.600	-0.50079	-0.65594	-0.33887	0.45166	23.4	13111	100
2025-5-25 10:3:45.828	WT901BLE68(801231B9234C)	-4.190	-1.160	0.699	95.947	-5.127	-196.045	64.38	85.08	-48.84	17.934	-20.580	-19.600	-0.50079	-0.65594	-0.33887	0.45166	23.4	13111	100
2025-5-25 10:3:45.853	WT901BLE68(801231B9234C)	-3.122	0.032	0.452	120.667	-247.314	-148.438	16.50	84.91	-99.65	17.934	-20.580	-19.600	-0.50079	-0.65594	-0.33887	0.45166	23.4	13111	100
2025-5-25 10:3:45.854	WT901BLE68(801231B9234C)	-2.117	0.604	0.463	123.657	-256.226	-181.274	-9.03	79.68	-128.27	17.934	-20.580	-19.600	-0.50079	-0.65594	-0.33887	0.45166	23.4	13111	100
2025-5-25 10:3:45.896	WT901BLE68(801231B9234C)	-1.697	1.421	0.540	152.527	-82.031	-213.196	-20.20	75.65	-142.95	17.934	-20.580	-19.600	-0.50079	-0.65594	-0.33887	0.45166	23.4	13111	100
2025-5-25 10:3:45.896	WT901BLE68(801231B9234C)	-1.468	2.021	0.256	94.788	126.709	-134.705	-30.61	75.21	-156.51	17.934	-20.580	-19.600	-0.50079	-0.65594	-0.33887	0.45166	23.4	13111	100
2025-5-25 10:3:45.944	WT901BLE68(801231B9234C)	-1.138	1.040	0.270	81.177	231.689	-79.468	-43.95	77.55	-172.07	17.934	-20.580	-19.600	-0.50079	-0.65594	-0.33887	0.45166	23.4	13111	100
2025-5-25 10:3:45.944	WT901BLE68(801231B9234C)	-0.828	0.718	0.201	127.991	218.140	-63.477	-61.59	79.46	167.55	17.934	-20.580	-19.600	-0.50079	-0.65594	-0.33887	0.45166	23.4	13111	100
2025-5-25 10:3:45.987	WT901BLE68(801231B9234C)	-0.505	0.858	0.218	135.986	162.720	-48.035	-77.92	80.01	148.13	17.934	-20.580	-19.600	-0.21936	-0.61163	-0.32535	0.68689	23.4	13111	100
2025-5-25 10:3:45.988	WT901BLE68(801231B9234C)	-0.189	0.896	0.234	127.502	78.369	-34.607	-86.92	79.91	136.27	17.934	-20.580	-19.600	-0.21936	-0.61163	-0.32535	0.68689	23.4	13111	100
2025-5-25 10:3:46.10	WT901BLE68(801231B9234C)	0.240	0.973	0.199	106.445	-24.048	-50.598	-85.60	79.52	135.25	17.934	-20.580	-19.600	-0.21936	-0.61163	-0.32535	0.68689	23.4	13111	100
2025-5-25 10:3:46.10	WT901BLE68(801231B9234C)	0.685	0.972	0.081	72.632	-101.929	-69.458	-77.87	78.49	142.05	17.934	-20.580	-19.600	-0.21936	-0.61163	-0.32535	0.68689	23.4	13111	100
2025-5-25 10:3:46.54	WT901BLE68(801231B9234C)	0.721	0.794	0.066	46.875	-110.107	-65.430	-70.94	77.07	149.16	17.934	-20.580	-19.600	-0.21936	-0.61163	-0.32535	0.68689	23.4	13111	100
2025-5-25 10:3:46.54	WT901BLE68(801231B9234C)	0.525	0.769	0.008	7.751	-67.993	-34.607	-67.54	76.00	153.46	17.934	-20.580	-19.600	-0.21936	-0.61163	-0.32535	0.68689	23.4	13111	100
2025-5-25 10:3:46.98	WT901BLE68(801231B9234C)	0.254	0.856	-0.181	-58.472	0.244	42.114	-68.50	76.74	154.28	17.934	-20.580	-19.600	-0.21936	-0.61163	-0.32535	0.68689	23.4	13111	100
2025-5-25 10:3:46.98	WT901BLE68(801231B9234C)	-0.070	0.798	-0.114	-99.243	11.108	116.516	-71.60	79.22	153.92	17.934	-20.580	-19.600	-0.21936	-0.61163	-0.32535	0.68689	23.4	13111	100
2025-5-25 10:3:46.146	WT901BLE68(801231B9234C)	-0.909	0.952	0.039	-157.410	-19.043	185.181	-70.91	82.99	158.25	17.934	-20.580	-19.600	-0.21936	-0.61163	-0.32535	0.68689	23.4	13111	100
2025-5-25 10:3:46.147	WT901BLE68(801231B9234C)	-2.668	0.897	0.354	-233.704	-1.099	198.792	-58.88	87.28	175.43	17.934	-20.580	-19.600	-0.21936	-0.61163	-0.32535	0.68689	23.4	13111	100
2025-5-25 10:3:46.168	WT901BLE68(801231B9234C)	-3.375	0.880	0.595	-261.658	89.050	248.474	91.72	88.76	-27.77	29.106	-17.542	-8.134	-0.21936	-0.61163	-0.32535	0.68689	23.4	13111	100
2025-5-25 10:3:46.168	WT901BLE68(801231B9234C)	-2.980	1.421	0.553	-210.266	32.104	296.265	97.15	82.21	-16.57	29.106	-17.542	-8.134	-0.21936	-0.61163	-0.32535	0.68689	23.4	13111	100
2025-5-25 10:3:46.213	WT901BLE68(801231B9234C)	-2.612	0.804	0.883	-201.660	107.056	200.867	96.48	77.06	-12.73	29.106	-17.542	-8.134	-0.21936	-0.61163	-0.32535	0.68689	23.4	13111	100
2025-5-25 10:3:46.213	WT901BLE68(801231B9234C)	-2.276	0.233	0.668	-163.086	176.697	170.288	101.20	72.96	-4.56	29.106	-17.542	-8.134	-0.21936	-0.61163	-0.32535	0.68689	23.4	13111	100
2025-5-25 10:3:46.256	WT901BLE68(801231B9234C)	-1.685	-0.266	0.514	-137.878	147.400	145.691	104.69	69.31	1.67	29.106	-17.542	-8.134	-0.21936	-0.61163	-0.32535	0.68689	23.4	13111	100
2025-5-25 10:3:46.256	WT901BLE68(801231B9234C)	-1.175	-0.573	0.391	-110.901	69.763	110.046	105.21	66.59	4.11	29.106	-17.542	-8.134	-0.21936	-0.61163	-0.32535	0.68689	23.4	13111	100
2025-5-25 10:3:46.301	WT901BLE68(801231B9234C)	-0.819	-0.654	0.302	-81.848	-3.906	83.069	103.04	65.01	3.02	29.106	-17.542	-8.134	-0.21936	-0.61163	-0.32535	0.68689	23.4	13111	100
2025-5-25 10:3:46.301	WT901BLE68(801231B9234C)	-0.499	-0.595	0.262	-66.772	-38.574	73.669	100.03	63.97	0.42	29.106	-17.542	-8.134	-0.21936	-0.61163	-0.32535	0.68689	23.4	13111	100
2025-5-25 10:3:46.347	WT901BLE68(801231B9234C)	-0.191	-0.615	0.225	-58.350	-64.575	76.416	96.30	63.04	-3.21	29.106	-17.542	-8.134	-0.21936	-0.61163	-0.32535	0.68689	23.4	13111	100
2025-5-25 10:3:46.348	WT901BLE68(801231B9234C)	0.024	-0.771	0.191	-43.640	-80.261	73.242	92.49	62.11	-7.24	29.106	-17.542	-8.134	-0.21936	-0.61163	-0.32535	0.68689	23.4	13111	100
2025-5-25 10:3:46.370	WT901BLE68(801231B9234C)	0.190	-0.975	0.208	-27.039	-97.595	53.101	88.75	61.38	-11.60	29.106	-17.542	-8.134	-0.57565	-0.63782	-0.29355	0.41895	23.4	13111	100
2025-5-25 10:3:46.370	WT901BLE68(801231B9234C)	0.091	-1.166	0.292	4.333	-99.548	-2.686	85.25	61.51	-16.24	29.106	-17.542	-8.134	-0.57565	-0.63782	-0.29355	0.41895	23.4	13111	100
2025-5-25 10:3:46.415	WT901BLE68(801231B9234C)	-0.211	-1.169	0.245	33.691	-44.006	-64.026	83.57	62.97	-19.52	29.106	-17.542	-8.134	-0.57565	-0.63782	-0.29355	0.41895	23.4	13111	100
2025-5-25 10:3:46.415	WT901BLE68(801231B9234C)	-0.332	-1.102	0.085	74.341	-31.555	-99.731	83.58	65.48	-21.54	29.106	-17.542	-8.134	-0.57565	-0.63782	-0.29355	0.41895	23.4	13111	100
2025-5-25 10:3:46.459	WT901BLE68(801231B9234C)	-0.557	-0.886	0.116	111.816	-69.153	-140.991	83.03	68.67	-25.03	29.106	-17.542	-8.134	-0.57565	-0.63782	-0.29355	0.41895	23.4	13111	100
2025-5-25 10:3:46.459	WT901BLE68(801231B9234C)	-1.429	-0.730	0.252	131.653	-78.125	-177.490	80.45	72.61	-31.10	29.106	-17.542	-8.134	-0.57565	-0.63782	-0.29355	0.41895	23.4	13111	100
2025-5-25 10:3:46.503	WT901BLE68(801231B9234C)	-3.419	-0.615	0.688	119.507	-60.486	-191.833	76.11	76.86	-38.88	29.106	-17.542	-8.134	-0.57565	-0.63782	-0.29355	0.41895	23.4	13111	100
2025-5-25 10:3:46.503	WT901BLE68(801231B9234C)	-3.394	-0.561	0.931	99.915	-133.850	-202.942	63.11	80.68	-54.81	29.106	-17.542	-8.134	-0.57565	-0.63782	-0.29355	0.41895	23.4	13111	100
2025-5-25 10:3:46.552	WT901BLE68(801231B9234C)	-2.558	0.411	0.626	121.216	-316.040	-202.942	27.03	80.24	-94.38	29.106	-17.542	-8.134	-0.57565	-0.63782	-0.29355	0.41895	23.4	13111	100
2025-5-25 10:3:46.552	WT901BLE68(801231B9234C)	-2.021	0.540	0.730	112.122	-265.015	-230.774	2.40	75.61	-122.42	29.106	-17.542	-8.134	-0.57565	-0.63782	-0.29355	0.41895	23.4	13111	100
2025-5-25 10:3:46.572	WT901BLE68(801231B9234C)	-2.232	1.881	0.781	111.511	-102.539	-212.524	-10.32	71.99	-138.54	24.990	-10.584	-12.740	-0.57565	-0.63782	-0.29355	0.41895	23.4	13111	100
2025-5-25 10:3:46.572	WT901BLE68(801231B9234C)	-1.312	5.394	0.505	64.819	53.589	-113.037	-17.39	71.27	-147.72	24.990	-10.584	-12.740	-0.57565	-0.63782	-0.29355	0.41895	23.4	13111	100
2025-5-25 10:3:46.618	WT901BLE68(801231B9234C)	-0.953	0.729	0.399	56.763	137.024	-98.877	-24.31	72.80	-155.51	24.990	-10.584	-12.740	-0.57565	-0.63782	-0.29355	0.41895	23.4	13111	100
2025-5-25 10:3:46.618	WT901BLE68(801231B9234C)	-0.642	0.942	0.198	81.299	148.438	-71.838	-31.43	74.84	-163.98	24.990	-10.584	-12.740	-0.57565	-0.63782	-0.29355	0.41895	23.4	13111	100
2025-5-25 10:3:46.661	WT901BLE68(801231B9234C)	-0.522	0.820	0.119	85.205	156.799	-40.833	-38.99	77.15	-172.96	24.990	-10.584	-12.740	-0.57565	-0.63782	-0.29355	0.41895	23.4	13111	100
2025-5-25 10:3:46.661	WT901BLE68(801231B9234C)	-0.331	0.667	0.109	83.984	116.516	-26.489	-46.86	79.11	177.92	24.990	-10.584	-12.740	-0.57565	-0.63782	-0.29355	0.41895	23.4	13111	100
2025-5-25 10:3:46.706	WT901BLE68(801231B9234C)	0.072	0.646	0.098	72.754	32.776	-13.367	-51.02	80.12	172.84	24.990	-10.584	-12.740	-0.57565	-0.63782	-0.29355	0.41895	23.4	13111	100
2025-5-25 10:3:46.706	WT901BLE68(801231B9234C)	0.448	0.672	0.021	55.542	-35.156	-4.578	-48.64	80.31	174.81	24.990	-10.584	-12.740	-0.57565	-0.63782	-0.29355	0.41895	23.4	13111	100
2025-5-25 10:3:46.774	WT901BLE68(801231B9234C)	0.646	0.680	-0.045	34.485	-46.326	-3.418	-43.88	80.22	179.58	24.990	-10.584	-12.740	-0.57565	-0.63782	-0.29355	0.41895	23.4	13111	100
2025-5-25 10:3:46.774	WT901BLE68(801231B9234C)	0.460	0.566	-0.035	0.366	-14.709	17.151	-40.45	80.51	-176.28	24.990	-10.584	-12.740	-0.57565	-0.63782	-0.29355	0.41895	23.4	13111	100
2025-5-25 10:3:46.775	WT901BLE68(801231B9234C)	0.165	0.498	-0.075	-29.663	31.555	55.542	-37.65	82.01	-172.12	24.990	-10.584	-12.740	-0.26074	-0.60278	-0.28372	0.69861	23.4	13111	100
2025-5-25 10:3:46.775	WT901BLE68(801231B9234C)	-0.152	0.791	-0.117	-61.829	47.119	95.276	-31.38	84.48	-163.98	24.990	-10.584	-12.740	-0.26074	-0.60278	-0.28372	0.69861	23.4	13111	100
2025-5-25 10:3:46.827	WT901BLE68(801231B9234C)	-0.574	0.971	0.009	-119.690	21.973	141.968	-2.63	86.66	-132.38	24.990	-10.584	-12.740	-0.26074	-0.60278	-0.28372	0.69861	23.4	13111	100
2025-5-25 10:3:46.827	WT901BLE68(801231B9234C)	-1.933	0.923	0.249	-179.932	7.263	164.795	46.09	85.86	-79.55	24.990	-10.584	-12.740	-0.26074	-0.60278	-0.28372	0.69861	23.4	13111	100
2025-5-25 10:3:46.863	WT901BLE68(801231B9234C)	-2.780	0.843	0.560	-228.638	66.162	158.813	69.87	83.27	-50.59	24.990	-10.584	-12.740	-0.26074	-0.60278	-0.28372	0.69861	23.4	13111	100
2025-5-25 10:3:46.864	WT901BLE68(801231B9234C)	-2.631	0.803	0.655	-196.960	60.913	257.141	82.51	78.77	-32.82	24.990	-10.584	-12.740	-0.26074	-0.60278	-0.28372	0.69861	23.4	13111	100
2025-5-25 10:3:46.909	WT901BLE68(801231B9234C)	-2.262	1.082	0.803	-160.095	75.317	200.378	84.90	73.95	-26.53	24.990	-10.584	-12.740	-0.26074	-0.60278	-0.28372	0.69861	23.4	13111	100
2025-5-25 10:3:46.909	WT901BLE68(801231B9234C)	-1.911	0.626	0.898	-150.574	163.818	152.466	89.84	70.60	-17.70	24.990	-10.584	-12.740	-0.26074	-0.60278	-0.28372	0.69861	23.4	13111	100
2025-5-25 10:3:46.933	WT901BLE68(801231B9234C)	-1.766	0.107	0.714	-113.098	204.407	138.672	96.02	67.45	-8.25	24.990	-10.584	-12.740	-0.26074	-0.60278	-0.28372	0.69861	23.4	13111	100
2025-5-25 10:3:46.933	WT901BLE68(801231B9234C)	-1.486	-0.231	0.582	-93.384	178.711	119.812	100.91	64.44	-0.64	24.990	-10.584	-12.740	-0.26074	-0.60278	-0.28372	0.69861	23.4	13111	100
2025-5-25 10:3:46.976	WT901BLE68(801231B9234C)	-1.170	-0.437	0.462	-66.956	95.032	94.788	102.95	62.06	3.17	23.814	-16.072	-21.854	-0.26074	-0.60278	-0.28372	0.69861	23.4	13111	100
2025-5-25 10:3:46.977	WT901BLE68(801231B9234C)	-0.816	-0.482	0.458	-49.622	17.578	65.613	102.44	60.70	3.51	23.814	-16.072	-21.854	-0.26074	-0.60278	-0.28372	0.69861	23.4	13111	100
2025-5-25 10:3:47.26	WT901BLE68(801231B9234C)	-0.478	-0.469	0.448	-34.790	-20.264	47.546	100.84	60.09	2.09	23.814	-16.072	-21.854	-0.26074	-0.60278	-0.28372	0.69861	23.4	13111	100
2025-5-25 10:3:47.26	WT901BLE68(801231B9234C)	-0.205	-0.507	0.426	-31.494	-49.072	37.415	98.50	59.86	-0.39	23.814	-16.072	-21.854	-0.26074	-0.60278	-0.28372	0.69861	23.4	13111	100
2025-5-25 10:3:47.66	WT901BLE68(801231B9234C)	0.015	-0.726	0.374	-25.146	-68.481	25.452	95.71	59.92	-3.59	23.814	-16.072	-21.854	-0.26074	-0.60278	-0.28372	0.69861	23.4	13111	100
2025-5-25 10:3:47.67	WT901BLE68(801231B9234C)	0.139	-0.939	0.359	-15.320	-85.815	2.075	92.55	60.39	-7.44	23.814	-16.072	-21.854	-0.26074	-0.60278	-0.28372	0.69861	23.4	13111	100
2025-5-25 10:3:47.110	WT901BLE68(801231B9234C)	0.165	-1.026	0.294	-8.423	-82.581	-35.767	89.33	61.53	-11.52	23.814	-16.072	-21.854	-0.26074	-0.60278	-0.28372	0.69861	23.4	13111	100
2025-5-25 10:3:47.111	WT901BLE68(801231B9234C)	-0.094	-1.038	0.251	25.024	-47.058	-63.110	87.26	63.37	-14.76	23.814	-16.072	-21.854	-0.26074	-0.60278	-0.28372	0.69861	23.4	13111	100
2025-5-25 10:3:47.134	WT901BLE68(801231B9234C)	-0.403	-0.865	0.274	56.335	-16.174	-93.811	86.98	65.84	-16.62	23.814	-16.072	-21.854	-0.26074	-0.60278	-0.28372	0.69861	23.4	13111	100
2025-5-25 10:3:47.134	WT901BLE68(801231B9234C)	-0.843	-0.673	0.303	85.205	-16.418	-129.456	87.69	69.03	-18.00	23.814	-16.072	-21.854	-0.26074	-0.60278	-0.28372	0.69861	23.4	13111	100
2025-5-25 10:3:47.178	WT901BLE68(801231B9234C)	-1.538	-0.568	0.268	95.459	-45.105	-164.307	87.29	72.91	-20.81	23.814	-16.072	-21.854	-0.26074	-0.60278	-0.28372	0.69861	23.4	13111	100
2025-5-25 10:3:47.179	WT901BLE68(801231B9234C)	-2.995	-0.706	0.546	96.313	-78.735	-187.317	83.30	77.09	-27.39	23.814	-16.072	-21.854	-0.45529	-0.61194	-0.32663	0.55807	23.4	13111	100
2025-5-25 10:3:47.226	WT901BLE68(801231B9234C)	-3.567	-0.522	0.847	76.355	-160.522	-190.308	68.50	80.97	-44.62	23.814	-16.072	-21.854	-0.45529	-0.61194	-0.32663	0.55807	23.4	13111	100
2025-5-25 10:3:47.226	WT901BLE68(801231B9234C)	-2.776	0.197	0.557	93.994	-314.087	-201.538	29.19	80.61	-86.48	23.814	-16.072	-21.854	-0.45529	-0.61194	-0.32663	0.55807	23.4	13111	100
2025-5-25 10:3:47.269	WT901BLE68(801231B9234C)	-2.117	0.561	0.544	95.093	-284.546	-222.717	3.53	75.89	-114.83	23.814	-16.072	-21.854	-0.45529	-0.61194	-0.32663	0.55807	23.4	13111	100
2025-5-25 10:3:47.269	WT901BLE68(801231B9234C)	-2.074	1.222	0.733	118.164	-141.296	-238.403	-9.72	71.69	-131.15	23.814	-16.072	-21.854	-0.45529	-0.61194	-0.32663	0.55807	23.4	13111	100
2025-5-25 10:3:47.313	WT901BLE68(801231B9234C)	-1.971	1.622	0.737	60.730	-8.667	-185.425	-18.21	69.78	-142.08	23.814	-16.072	-21.854	-0.45529	-0.61194	-0.32663	0.55807	23.4	13111	100
2025-5-25 10:3:47.313	WT901BLE68(801231B9234C)	-1.202	0.898	0.586	50.964	-25.879	-159.485	-24.69	68.51	-149.99	23.814	-16.072	-21.854	-0.45529	-0.61194	-0.32663	0.55807	23.4	13111	100
2025-5-25 10:3:47.335	WT901BLE68(801231B9234C)	-0.543	0.997	0.372	76.660	-79.224	-116.089	-27.11	66.36	-154.09	23.814	-16.072	-21.854	-0.45529	-0.61194	-0.32663	0.55807	23.4	13111	100
2025-5-25 10:3:47.335	WT901BLE68(801231B9234C)	-0.220	0.922	0.262	67.444	-47.852	-84.351	-27.41	64.65	-155.96	23.814	-16.072	-21.854	-0.45529	-0.61194	-0.32663	0.55807	23.4	13111	100
2025-5-25 10:3:47.381	WT901BLE68(801231B9234C)	-0.121	0.722	0.178	68.054	2.441	-70.313	-27.80	63.98	-157.77	23.814	-16.072	-21.854	-0.45529	-0.61194	-0.32663	0.55807	23.4	13111	100
2025-5-25 10:3:47.381	WT901BLE68(801231B9234C)	-0.043	0.668	0.117	64.941	23.010	-69.214	-28.57	64.02	-159.96	16.660	-18.522	-27.930	-0.45529	-0.61194	-0.32663	0.55807	23.4	13111	100
2025-5-25 10:3:47.427	WT901BLE68(801231B9234C)	0.151	0.721	0.069	52.063	10.315	-69.763	-29.38	64.07	-161.92	16.660	-18.522	-27.930	-0.45529	-0.61194	-0.32663	0.55807	23.4	13111	100
2025-5-25 10:3:47.427	WT901BLE68(801231B9234C)	0.305	0.728	0.000	35.034	-1.953	-70.679	-30.29	63.85	-163.54	16.660	-18.522	-27.930	-0.45529	-0.61194	-0.32663	0.55807	23.4	13111	100
2025-5-25 10:3:47.471	WT901BLE68(801231B9234C)	0.315	0.633	-0.090	20.264	6.531	-53.650	-31.23	63.82	-164.77	16.660	-18.522	-27.930	-0.45529	-0.61194	-0.32663	0.55807	23.4	13111	100
2025-5-25 10:3:47.471	WT901BLE68(801231B9234C)	0.251	0.582	-0.083	1.831	24.048	-10.437	-31.78	64.51	-165.03	16.660	-18.522	-27.930	-0.45529	-0.61194	-0.32663	0.55807	23.4	13111	100
2025-5-25 10:3:47.516	WT901BLE68(801231B9234C)	0.129	0.675	-0.089	-16.602	40.344	39.307	-31.29	66.13	-163.69	16.660	-18.522	-27.930	-0.45529	-0.61194	-0.32663	0.55807	23.4	13111	100
2025-5-25 10:3:47.516	WT901BLE68(801231B9234C)	-0.071	0.794	0.039	-50.354	41.687	91.309	-29.51	68.43	-160.31	16.660	-18.522	-27.930	-0.45529	-0.61194	-0.32663	0.55807	23.4	13111	100
2025-5-25 10:3:47.538	WT901BLE68(801231B9234C)	-0.499	0.657	0.367	-94.666	23.682	138.550	-25.28	70.91	-153.41	16.660	-18.522	-27.930	-0.45529	-0.61194	-0.32663	0.55807	23.4	13111	100
2025-5-25 10:3:47.538	WT901BLE68(801231B9234C)	-1.674	0.541	0.584	-117.798	52.429	179.688	-17.73	73.55	-142.49	16.660	-18.522	-27.930	-0.45529	-0.61194	-0.32663	0.55807	23.4	13111	100
2025-5-25 10:3:47.584	WT901BLE68(801231B9234C)	-2.560	0.809	0.780	-169.922	84.229	210.083	-5.76	76.31	-126.30	16.660	-18.522	-27.930	-0.45529	-0.61194	-0.32663	0.55807	23.4	13111	100
2025-5-25 10:3:47.584	WT901BLE68(801231B9234C)	-2.355	0.510	1.142	-155.090	-6.226	282.349	14.12	76.76	-102.00	16.660	-18.522	-27.930	-0.46533	-0.53952	-0.29486	0.63663	23.4	13111	100
2025-5-25 10:3:47.628	WT901BLE68(801231B9234C)	-1.938	0.211	1.579	-115.906	-20.386	241.638	29.92	73.87	-83.07	16.660	-18.522	-27.930	-0.46533	-0.53952	-0.29486	0.63663	23.4	13111	100
2025-5-25 10:3:47.628	WT901BLE68(801231B9234C)	-1.849	0.239	1.509	-102.722	52.795	202.759	39.35	71.55	-71.00	16.660	-18.522	-27.930	-0.46533	-0.53952	-0.29486	0.63663	23.4	13111	100
2025-5-25 10:3:47.675	WT901BLE68(801231B9234C)	-1.642	-0.156	1.269	-103.210	100.281	164.978	47.60	70.15	-60.19	16.660	-18.522	-27.930	-0.46533	-0.53952	-0.29486	0.63663	23.4	13111	100
2025-5-25 10:3:47.676	WT901BLE68(801231B9234C)	-1.032	-0.429	0.951	-64.331	67.444	122.131	53.21	69.01	-52.68	16.660	-18.522	-27.930	-0.46533	-0.53952	-0.29486	0.63663	23.4	13111	100
2025-5-25 10:3:47.726	WT901BLE68(801231B9234C)	-0.728	-0.481	0.765	-37.659	40.833	101.624	56.60	67.79	-48.31	16.660	-18.522	-27.930	-0.46533	-0.53952	-0.29486	0.63663	23.4	13111	100
2025-5-25 10:3:47.726	WT901BLE68(801231B9234C)	-0.528	-0.519	0.629	-32.898	33.508	80.566	58.76	66.79	-45.52	16.660	-18.522	-27.930	-0.46533	-0.53952	-0.29486	0.63663	23.4	13111	100
2025-5-25 10:3:47.741	WT901BLE68(801231B9234C)	-0.287	-0.534	0.495	-27.039	15.259	69.397	59.96	65.96	-43.87	16.660	-18.522	-27.930	-0.46533	-0.53952	-0.29486	0.63663	23.4	13111	100
2025-5-25 10:3:47.741	WT901BLE68(801231B9234C)	-0.067	-0.602	0.426	-19.409	-11.353	60.120	60.01	65.08	-43.65	16.660	-18.522	-27.930	-0.46533	-0.53952	-0.29486	0.63663	23.4	13111	100
2025-5-25 10:3:47.786	WT901BLE68(801231B9234C)	0.102	-0.752	0.388	-15.015	-22.217	42.236	59.22	64.34	-44.50	16.660	-18.522	-27.930	-0.46533	-0.53952	-0.29486	0.63663	23.4	13111	100
2025-5-25 10:3:47.786	WT901BLE68(801231B9234C)	0.110	-0.940	0.340	-8.789	-27.710	8.911	57.77	64.08	-46.22	13.328	-17.052	-30.576	-0.46533	-0.53952	-0.29486	0.63663	23.4	13111	100
2025-5-25 10:3:47.833	WT901BLE68(801231B9234C)	0.020	-1.001	0.238	-0.244	-27.222	-38.086	55.33	64.59	-49.17	13.328	-17.052	-30.576	-0.46533	-0.53952	-0.29486	0.63663	23.4	13111	100
2025-5-25 10:3:47.833	WT901BLE68(801231B9234C)	-0.175	-0.864	0.186	24.109	-16.357	-79.956	52.23	66.00	-53.24	13.328	-17.052	-30.576	-0.46533	-0.53952	-0.29486	0.63663	23.4	13111	100
2025-5-25 10:3:47.876	WT901BLE68(801231B9234C)	-0.365	-0.727	0.207	45.715	-24.963	-118.408	47.91	67.92	-59.00	13.328	-17.052	-30.576	-0.46533	-0.53952	-0.29486	0.63663	23.4	13111	100
2025-5-25 10:3:47.876	WT901BLE68(801231B9234C)	-0.651	-0.631	0.280	66.223	-40.405	-154.114	41.19	69.96	-67.68	13.328	-17.052	-30.576	-0.46533	-0.53952	-0.29486	0.63663	23.4	13111	100
2025-5-25 10:3:47.900	WT901BLE68(801231B9234C)	-1.636	-0.714	0.441	86.731	-34.363	-182.251	31.96	71.87	-79.35	13.328	-17.052	-30.576	-0.46533	-0.53952	-0.29486	0.63663	23.4	13111	100
2025-5-25 10:3:47.900	WT901BLE68(801231B9234C)	-2.845	-0.775	1.033	77.881	-22.034	-196.533	20.26	73.42	-93.70	13.328	-17.052	-30.576	-0.46533	-0.53952	-0.29486	0.63663	23.4	13111	100
2025-5-25 10:3:47.943	WT901BLE68(801231B9234C)	-3.242	-0.502	1.118	52.429	-156.616	-156.555	7.38	72.72	-108.53	13.328	-17.052	-30.576	-0.46533	-0.53952	-0.29486	0.63663	23.4	13111	100
2025-5-25 10:3:47.944	WT901BLE68(801231B9234C)	-2.142	0.308	0.970	71.533	-308.350	-173.218	-1.33	67.49	-119.40	13.328	-17.052	-30.576	-0.46533	-0.53952	-0.29486	0.63663	23.4	13111	100
2025-5-25 10:3:47.988	WT901BLE68(801231B9234C)	-1.276	0.647	1.200	96.008	-286.499	-187.805	-6.75	61.18	-127.45	13.328	-17.052	-30.576	-0.46533	-0.53952	-0.29486	0.63663	23.4	13111	100
2025-5-25 10:3:47.989	WT901BLE68(801231B9234C)	-1.393	1.513	1.299	89.600	-96.191	-157.776	-9.54	57.27	-133.19	13.328	-17.052	-30.576	-0.36389	-0.40561	-0.25327	0.79926	23.4	13111	100
2025-5-25 10:3:48.33	WT901BLE68(801231B9234C)	-1.152	1.186	1.051	41.382	73.059	-148.926	-12.89	57.16	-138.56	13.328	-17.052	-30.576	-0.36389	-0.40561	-0.25327	0.79926	23.4	13111	100
2025-5-25 10:3:48.33	WT901BLE68(801231B9234C)	-0.798	0.552	0.614	41.382	140.015	-113.403	-16.45	58.89	-143.92	13.328	-17.052	-30.576	-0.36389	-0.40561	-0.25327	0.79926	23.4	13111	100
2025-5-25 10:3:48.126	WT901BLE68(801231B9234C)	-0.425	0.776	0.422	77.698	162.231	-82.275	-18.82	61.39	-148.34	13.328	-17.052	-30.576	-0.36389	-0.40561	-0.25327	0.79926	23.4	13111	100
2025-5-25 10:3:48.126	WT901BLE68(801231B9234C)	-0.288	0.659	0.246	82.092	199.890	-57.129	-21.30	64.56	-152.90	13.328	-17.052	-30.576	-0.36389	-0.40561	-0.25327	0.79926	23.4	13111	100
2025-5-25 10:3:48.126	WT901BLE68(801231B9234C)	-0.395	0.618	0.126	73.486	206.604	-42.419	-24.27	68.21	-157.77	13.328	-17.052	-30.576	-0.36389	-0.40561	-0.25327	0.79926	23.4	13111	100
2025-5-25 10:3:48.127	WT901BLE68(801231B9234C)	-0.286	0.688	0.119	56.641	143.433	-44.495	-27.75	71.14	-162.73	13.328	-17.052	-30.576	-0.36389	-0.40561	-0.25327	0.79926	23.4	13111	100
2025-5-25 10:3:48.145	WT901BLE68(801231B9234C)	0.228	0.748	0.101	39.429	2.502	-29.419	-29.03	72.03	-164.81	13.328	-17.052	-30.576	-0.36389	-0.40561	-0.25327	0.79926	23.4	13111	100
2025-5-25 10:3:48.145	WT901BLE68(801231B9234C)	0.550	0.730	0.022	29.846	-68.481	-4.944	-26.10	71.37	-162.11	13.328	-17.052	-30.576	-0.36389	-0.40561	-0.25327	0.79926	23.4	13111	100
2025-5-25 10:3:48.191	WT901BLE68(801231B9234C)	0.580	0.725	-0.036	3.540	-63.965	12.573	-22.99	70.58	-158.48	13.328	-17.052	-30.576	-0.36389	-0.40561	-0.25327	0.79926	23.4	13111	100
2025-5-25 10:3:48.191	WT901BLE68(801231B9234C)	0.441	0.820	-0.056	-25.940	-20.691	60.059	-19.37	70.85	-153.55	22.148	-22.736	-24.794	-0.36389	-0.40561	-0.25327	0.79926	23.4	13111	100
2025-5-25 10:3:48.235	WT901BLE68(801231B9234C)	0.095	0.892	0.021	-58.289	7.935	113.708	-13.83	72.10	-145.96	22.148	-22.736	-24.794	-0.36389	-0.40561	-0.25327	0.79926	23.4	13111	100
2025-5-25 10:3:48.235	WT901BLE68(801231B9234C)	-0.859	0.724	0.285	-89.233	44.800	158.447	-4.90	73.88	-134.28	22.148	-22.736	-24.794	-0.36389	-0.40561	-0.25327	0.79926	23.4	13111	100
2025-5-25 10:3:48.281	WT901BLE68(801231B9234C)	-2.554	0.920	0.438	-122.559	124.084	191.895	8.72	76.21	-117.26	22.148	-22.736	-24.794	-0.36389	-0.40561	-0.25327	0.79926	23.4	13111	100
2025-5-25 10:3:48.281	WT901BLE68(801231B9234C)	-2.827	1.130	0.607	-165.405	119.385	265.869	29.31	77.33	-92.08	22.148	-22.736	-24.794	-0.36389	-0.40561	-0.25327	0.79926	23.4	13111	100
2025-5-25 10:3:48.305	WT901BLE68(801231B9234C)	-2.273	0.761	1.151	-81.848	2.747	300.354	48.43	73.68	-69.61	22.148	-22.736	-24.794	-0.36389	-0.40561	-0.25327	0.79926	23.4	13111	100
2025-5-25 10:3:48.305	WT901BLE68(801231B9234C)	-1.841	0.565	1.264	-65.735	17.700	195.679	55.71	69.87	-60.31	22.148	-22.736	-24.794	-0.36389	-0.40561	-0.25327	0.79926	23.4	13111	100
2025-5-25 10:3:48.347	WT901BLE68(801231B9234C)	-1.462	0.186	1.063	-34.912	78.491	166.931	61.32	67.23	-53.36	22.148	-22.736	-24.794	-0.36389	-0.40561	-0.25327	0.79926	23.4	13111	100
2025-5-25 10:3:48.347	WT901BLE68(801231B9234C)	-1.197	-0.183	0.866	-17.395	109.802	128.296	67.23	65.44	-46.49	22.148	-22.736	-24.794	-0.36389	-0.40561	-0.25327	0.79926	23.4	13111	100
2025-5-25 10:3:48.394	WT901BLE68(801231B9234C)	-0.929	-0.335	0.723	3.845	97.595	100.830	72.29	64.11	-41.03	22.148	-22.736	-24.794	-0.36389	-0.40561	-0.25327	0.79926	23.4	13111	100
2025-5-25 10:3:48.394	WT901BLE68(801231B9234C)	-0.719	-0.440	0.666	10.559	61.584	73.120	75.68	63.07	-37.70	22.148	-22.736	-24.794	-0.36389	-0.40561	-0.25327	0.79926	23.4	13111	100
2025-5-25 10:3:48.441	WT901BLE68(801231B9234C)	-0.518	-0.472	0.628	7.385	27.771	52.673	77.31	62.33	-36.38	22.148	-22.736	-24.794	-0.53360	-0.63684	-0.21109	0.51477	23.4	13111	100
2025-5-25 10:3:48.441	WT901BLE68(801231B9234C)	-0.305	-0.515	0.567	6.958	-7.690	38.513	77.43	61.83	-36.74	22.148	-22.736	-24.794	-0.53360	-0.63684	-0.21109	0.51477	23.4	13111	100
2025-5-25 10:3:48.483	WT901BLE68(801231B9234C)	-0.127	-0.616	0.498	9.766	-37.842	27.222	76.32	61.50	-38.56	22.148	-22.736	-24.794	-0.53360	-0.63684	-0.21109	0.51477	23.4	13111	100
2025-5-25 10:3:48.484	WT901BLE68(801231B9234C)	-0.082	-0.790	0.461	13.184	-54.138	7.751	74.41	61.39	-41.39	22.148	-22.736	-24.794	-0.53360	-0.63684	-0.21109	0.51477	23.4	13111	100
2025-5-25 10:3:48.507	WT901BLE68(801231B9234C)	-0.188	-0.952	0.412	18.005	-51.514	-25.635	72.13	61.88	-44.73	22.148	-22.736	-24.794	-0.53360	-0.63684	-0.21109	0.51477	23.4	13111	100
2025-5-25 10:3:48.508	WT901BLE68(801231B9234C)	-0.326	-1.100	0.320	34.180	-48.157	-65.002	69.59	63.16	-48.53	22.148	-22.736	-24.794	-0.53360	-0.63684	-0.21109	0.51477	23.4	13111	100
2025-5-25 10:3:48.550	WT901BLE68(801231B9234C)	-0.470	-1.063	0.285	58.105	-55.603	-103.760	66.52	65.11	-53.29	22.148	-22.736	-24.794	-0.53360	-0.63684	-0.21109	0.51477	23.4	13111	100
2025-5-25 10:3:48.550	WT901BLE68(801231B9234C)	-0.678	-0.875	0.243	79.956	-79.529	-147.522	61.59	67.57	-60.41	22.148	-22.736	-24.794	-0.53360	-0.63684	-0.21109	0.51477	23.4	13111	100
2025-5-25 10:3:48.596	WT901BLE68(801231B9234C)	-1.111	-0.611	0.162	90.820	-112.915	-186.096	53.22	70.07	-71.46	22.148	-22.736	-24.794	-0.53360	-0.63684	-0.21109	0.51477	23.4	13111	100
2025-5-25 10:3:48.596	WT901BLE68(801231B9234C)	-2.770	-0.703	0.464	91.980	-131.042	-221.985	40.41	71.91	-87.12	22.148	-22.736	-24.794	-0.53360	-0.63684	-0.21109	0.51477	23.4	13111	100
2025-5-25 10:3:48.641	WT901BLE68(801231B9234C)	-3.413	-0.647	1.045	48.157	-147.949	-247.131	23.54	72.62	-106.44	15.484	-28.224	-25.872	-0.53360	-0.63684	-0.21109	0.51477	23.4	13111	100
2025-5-25 10:3:48.641	WT901BLE68(801231B9234C)	-2.959	0.179	0.945	36.865	-345.154	-182.007	7.73	68.60	-124.04	15.484	-28.224	-25.872	-0.53360	-0.63684	-0.21109	0.51477	23.4	13111	100
2025-5-25 10:3:48.665	WT901BLE68(801231B9234C)	-2.021	0.554	0.759	59.143	-311.401	-233.398	-1.36	62.13	-135.36	15.484	-28.224	-25.872	-0.53360	-0.63684	-0.21109	0.51477	23.4	13111	100
2025-5-25 10:3:48.665	WT901BLE68(801231B9234C)	-1.758	1.180	1.011	70.679	-149.109	-226.074	-7.71	57.69	-144.32	15.484	-28.224	-25.872	-0.53360	-0.63684	-0.21109	0.51477	23.4	13111	100
2025-5-25 10:3:48.708	WT901BLE68(801231B9234C)	-1.663	1.901	1.016	24.353	48.035	-201.965	-12.72	56.63	-151.52	15.484	-28.224	-25.872	-0.53360	-0.63684	-0.21109	0.51477	23.4	13111	100
2025-5-25 10:3:48.709	WT901BLE68(801231B9234C)	-1.124	0.940	0.676	49.194	159.058	-200.134	-18.88	58.27	-159.65	15.484	-28.224	-25.872	-0.53360	-0.63684	-0.21109	0.51477	23.4	13111	100
2025-5-25 10:3:48.778	WT901BLE68(801231B9234C)	-0.580	1.094	0.354	95.154	158.936	-156.799	-23.96	60.21	-167.53	15.484	-28.224	-25.872	-0.53360	-0.63684	-0.21109	0.51477	23.4	13111	100
2025-5-25 10:3:48.778	WT901BLE68(801231B9234C)	-0.371	0.871	0.260	115.234	180.054	-124.573	-28.15	62.34	-174.77	15.484	-28.224	-25.872	-0.53360	-0.63684	-0.21109	0.51477	23.4	13111	100
2025-5-25 10:3:48.800	WT901BLE68(801231B9234C)	-0.363	0.720	0.226	126.526	197.083	-110.657	-32.79	64.82	177.33	15.484	-28.224	-25.872	-0.53360	-0.63684	-0.21109	0.51477	23.4	13111	100
2025-5-25 10:3:48.800	WT901BLE68(801231B9234C)	-0.271	0.763	0.139	117.554	149.170	-93.750	-37.30	66.84	169.83	15.484	-28.224	-25.872	-0.53360	-0.63684	-0.21109	0.51477	23.4	13111	100
2025-5-25 10:3:48.844	WT901BLE68(801231B9234C)	-0.040	0.745	0.105	102.966	52.917	-80.688	-40.01	67.60	164.77	15.484	-28.224	-25.872	-0.08090	-0.55246	-0.21021	0.80246	23.4	13111	100
2025-5-25 10:3:48.844	WT901BLE68(801231B9234C)	0.251	0.658	0.049	77.148	-41.443	-68.481	-39.84	67.03	163.45	15.484	-28.224	-25.872	-0.08090	-0.55246	-0.21021	0.80246	23.4	13111	100
2025-5-25 10:3:48.867	WT901BLE68(801231B9234C)	0.458	0.717	0.010	51.636	-77.148	-48.401	-38.38	65.86	164.56	15.484	-28.224	-25.872	-0.08090	-0.55246	-0.21021	0.80246	23.4	13111	100
2025-5-25 10:3:48.868	WT901BLE68(801231B9234C)	0.458	0.682	-0.037	16.724	-48.767	-19.165	-37.63	65.19	165.92	15.484	-28.224	-25.872	-0.08090	-0.55246	-0.21021	0.80246	23.4	13111	100
2025-5-25 10:3:48.911	WT901BLE68(801231B9234C)	0.331	0.619	-0.073	-14.038	-3.235	19.836	-37.70	65.71	167.10	15.484	-28.224	-25.872	-0.08090	-0.55246	-0.21021	0.80246	23.4	13111	100
2025-5-25 10:3:48.911	WT901BLE68(801231B9234C)	0.085	0.734	0.034	-49.927	24.475	70.923	-37.74	67.45	169.01	15.484	-28.224	-25.872	-0.08090	-0.55246	-0.21021	0.80246	23.4	13111	100
2025-5-25 10:3:49.1	WT901BLE68(801231B9234C)	-0.265	0.741	0.176	-86.304	42.297	108.704	-37.25	70.10	172.17	15.484	-28.224	-25.872	-0.08090	-0.55246	-0.21021	0.80246	23.4	13111	100
2025-5-25 10:3:49.1	WT901BLE68(801231B9234C)	-1.173	0.724	0.367	-117.798	65.796	144.897	-35.69	73.51	177.07	15.484	-28.224	-25.872	-0.08090	-0.55246	-0.21021	0.80246	23.4	13111	100
2025-5-25 10:3:49.2	WT901BLE68(801231B9234C)	-2.386	0.981	0.619	-164.917	98.877	166.565	-32.86	77.65	-175.94	15.484	-28.224	-25.872	-0.08090	-0.55246	-0.21021	0.80246	23.4	13111	100
2025-5-25 10:3:49.2	WT901BLE68(801231B9234C)	-2.622	1.006	0.792	-175.720	64.270	246.399	-20.17	81.80	-158.26	15.484	-28.224	-25.872	-0.08090	-0.55246	-0.21021	0.80246	23.4	13111	100
2025-5-25 10:3:49.47	WT901BLE68(801231B9234C)	-2.570	1.010	1.101	-127.136	18.555	281.128	19.04	82.64	-114.97	15.484	-28.224	-25.872	-0.08090	-0.55246	-0.21021	0.80246	23.4	13111	100
2025-5-25 10:3:49.48	WT901BLE68(801231B9234C)	-2.290	0.678	1.252	-128.296	55.420	229.370	46.13	80.24	-85.14	27.342	-27.734	-17.150	-0.08090	-0.55246	-0.21021	0.80246	23.4	13111	100
2025-5-25 10:3:49.70	WT901BLE68(801231B9234C)	-2.123	0.214	1.131	-87.952	77.332	201.538	61.01	77.32	-68.25	27.342	-27.734	-17.150	-0.08090	-0.55246	-0.21021	0.80246	23.4	13111	100
2025-5-25 10:3:49.70	WT901BLE68(801231B9234C)	-1.694	-0.093	0.972	-72.449	69.275	158.813	69.46	74.63	-58.31	27.342	-27.734	-17.150	-0.08090	-0.55246	-0.21021	0.80246	23.4	13111	100
2025-5-25 10:3:49.113	WT901BLE68(801231B9234C)	-1.188	-0.285	0.751	-43.213	34.241	130.188	73.38	72.24	-53.49	27.342	-27.734	-17.150	-0.08090	-0.55246	-0.21021	0.80246	23.4	13111	100
2025-5-25 10:3:49.113	WT901BLE68(801231B9234C)	-0.849	-0.372	0.624	-28.992	15.564	103.882	74.84	70.26	-51.67	27.342	-27.734	-17.150	-0.08090	-0.55246	-0.21021	0.80246	23.4	13111	100
2025-5-25 10:3:49.157	WT901BLE68(801231B9234C)	-0.638	-0.506	0.597	-31.006	20.996	79.834	75.73	68.82	-50.47	27.342	-27.734	-17.150	-0.08090	-0.55246	-0.21021	0.80246	23.4	13111	100
2025-5-25 10:3:49.158	WT901BLE68(801231B9234C)	-0.441	-0.595	0.581	-33.386	6.409	67.078	75.96	67.79	-49.92	27.342	-27.734	-17.150	-0.08090	-0.55246	-0.21021	0.80246	23.4	13111	100
2025-5-25 10:3:49.203	WT901BLE68(801231B9234C)	-0.255	-0.833	0.535	-36.743	-38.879	67.139	74.53	66.68	-51.10	27.342	-27.734	-17.150	-0.08090	-0.55246	-0.21021	0.80246	23.4	13111	100
2025-5-25 10:3:49.204	WT901BLE68(801231B9234C)	-0.028	-1.152	0.444	-26.184	-88.257	44.922	71.01	65.62	-54.68	27.342	-27.734	-17.150	-0.08090	-0.55246	-0.21021	0.80246	23.4	13111	100
2025-5-25 10:3:49.248	WT901BLE68(801231B9234C)	0.126	-1.292	0.269	-8.606	-112.915	-10.315	65.93	65.14	-60.28	27.342	-27.734	-17.150	-0.46445	-0.62500	-0.15375	0.60822	23.4	13111	100
2025-5-25 10:3:49.249	WT901BLE68(801231B9234C)	-0.159	-1.496	0.198	16.357	-88.867	-26.733	60.70	65.44	-66.49	27.342	-27.734	-17.150	-0.46445	-0.62500	-0.15375	0.60822	23.4	13111	100
2025-5-25 10:3:49.273	WT901BLE68(801231B9234C)	-0.557	-1.029	0.115	57.190	-29.236	-109.375	56.37	67.03	-72.34	27.342	-27.734	-17.150	-0.46445	-0.62500	-0.15375	0.60822	23.4	13111	100
2025-5-25 10:3:49.273	WT901BLE68(801231B9234C)	-0.930	-0.939	0.116	82.397	-18.127	-171.082	51.73	69.89	-79.00	27.342	-27.734	-17.150	-0.46445	-0.62500	-0.15375	0.60822	23.4	13111	100
2025-5-25 10:3:49.316	WT901BLE68(801231B9234C)	-1.029	-0.824	0.146	111.755	-64.880	-216.187	42.46	72.78	-91.06	27.342	-27.734	-17.150	-0.46445	-0.62500	-0.15375	0.60822	23.4	13111	100
2025-5-25 10:3:49.316	WT901BLE68(801231B9234C)	-1.693	-0.696	0.274	128.967	-81.055	-236.816	27.55	74.59	-109.29	27.342	-27.734	-17.150	-0.46445	-0.62500	-0.15375	0.60822	23.4	13111	100
2025-5-25 10:3:49.361	WT901BLE68(801231B9234C)	-3.425	-0.719	0.594	110.535	-51.270	-248.352	10.10	75.16	-129.98	27.342	-27.734	-17.150	-0.46445	-0.62500	-0.15375	0.60822	23.4	13111	100
2025-5-25 10:3:49.361	WT901BLE68(801231B9234C)	-3.553	-0.406	0.746	75.439	-57.373	-254.761	-7.97	74.50	-150.65	27.342	-27.734	-17.150	-0.46445	-0.62500	-0.15375	0.60822	23.4	13111	100
2025-5-25 10:3:49.408	WT901BLE68(801231B9234C)	-2.801	0.132	0.396	107.483	-198.669	-228.333	-19.76	70.39	-165.06	27.342	-27.734	-17.150	-0.46445	-0.62500	-0.15375	0.60822	23.4	13111	100
2025-5-25 10:3:49.408	WT901BLE68(801231B9234C)	-2.465	0.854	0.447	138.550	-143.616	-270.447	-25.40	65.21	-174.22	27.342	-27.734	-17.150	-0.46445	-0.62500	-0.15375	0.60822	23.4	13111	100
2025-5-25 10:3:49.430	WT901BLE68(801231B9234C)	-1.913	1.950	0.343	109.253	-18.616	-182.922	-29.39	62.21	178.42	22.932	-29.988	-19.698	-0.46445	-0.62500	-0.15375	0.60822	23.4	13111	100
2025-5-25 10:3:49.430	WT901BLE68(801231B9234C)	-1.501	1.185	0.203	85.205	82.336	-129.822	-32.84	61.84	172.48	22.932	-29.988	-19.698	-0.46445	-0.62500	-0.15375	0.60822	23.4	13111	100
2025-5-25 10:3:49.476	WT901BLE68(801231B9234C)	-0.979	1.030	0.124	118.347	109.009	-96.191	-35.90	62.63	166.68	22.932	-29.988	-19.698	-0.46445	-0.62500	-0.15375	0.60822	23.4	13111	100
2025-5-25 10:3:49.476	WT901BLE68(801231B9234C)	-0.565	0.949	0.157	137.146	124.451	-67.261	-38.00	63.99	161.46	22.932	-29.988	-19.698	-0.46445	-0.62500	-0.15375	0.60822	23.4	13111	100
2025-5-25 10:3:49.527	WT901BLE68(801231B9234C)	-0.294	0.740	0.202	147.339	119.812	-58.716	-39.78	65.57	156.41	22.932	-29.988	-19.698	-0.46445	-0.62500	-0.15375	0.60822	23.4	13111	100
2025-5-25 10:3:49.527	WT901BLE68(801231B9234C)	-0.013	0.809	0.183	142.944	91.980	-61.707	-41.31	66.78	151.67	22.932	-29.988	-19.698	-0.46445	-0.62500	-0.15375	0.60822	23.4	13111	100
2025-5-25 10:3:49.563	WT901BLE68(801231B9234C)	0.237	0.961	0.145	124.084	43.030	-68.115	-42.12	67.30	148.01	22.932	-29.988	-19.698	-0.46445	-0.62500	-0.15375	0.60822	23.4	13111	100
2025-5-25 10:3:49.563	WT901BLE68(801231B9234C)	0.422	1.034	0.073	87.769	-7.690	-82.214	-42.30	66.92	145.72	22.932	-29.988	-19.698	-0.46445	-0.62500	-0.15375	0.60822	23.4	13111	100
2025-5-25 10:3:49.609	WT901BLE68(801231B9234C)	0.464	0.958	-0.004	78.125	-18.677	-79.407	-42.03	65.42	143.33	22.932	-29.988	-19.698	-0.46445	-0.62500	-0.15375	0.60822	23.4	13111	100
2025-5-25 10:3:49.609	WT901BLE68(801231B9234C)	0.311	0.862	-0.135	26.184	-17.944	-45.044	-40.97	63.71	142.09	22.932	-29.988	-19.698	-0.46445	-0.62500	-0.15375	0.60822	23.4	13111	100
2025-5-25 10:3:49.633	WT901BLE68(801231B9234C)	0.084	1.152	-0.242	-30.090	22.461	33.691	-41.37	63.82	141.78	22.932	-29.988	-19.698	0.08347	-0.56461	-0.12146	0.81201	23.4	13111	100
2025-5-25 10:3:49.633	WT901BLE68(801231B9234C)	-0.217	1.024	-0.107	-84.961	36.438	109.863	-42.67	66.15	143.11	22.932	-29.988	-19.698	0.08347	-0.56461	-0.12146	0.81201	23.4	13111	100
2025-5-25 10:3:49.676	WT901BLE68(801231B9234C)	-1.083	0.961	0.070	-130.920	33.081	167.053	-42.53	69.32	146.93	22.932	-29.988	-19.698	0.08347	-0.56461	-0.12146	0.81201	23.4	13111	100
2025-5-25 10:3:49.676	WT901BLE68(801231B9234C)	-2.692	0.851	0.288	-163.025	88.074	216.492	-40.80	73.73	153.22	22.932	-29.988	-19.698	0.08347	-0.56461	-0.12146	0.81201	23.4	13111	100
2025-5-25 10:3:49.727	WT901BLE68(801231B9234C)	-3.397	1.372	0.389	-204.590	141.296	284.302	-37.06	79.56	162.22	22.932	-29.988	-19.698	0.08347	-0.56461	-0.12146	0.81201	23.4	13111	100
2025-5-25 10:3:49.727	WT901BLE68(801231B9234C)	-2.869	0.895	0.601	-134.949	73.914	300.110	-6.87	84.25	-163.23	22.932	-29.988	-19.698	0.08347	-0.56461	-0.12146	0.81201	23.4	13111	100
2025-5-25 10:3:49.765	WT901BLE68(801231B9234C)	-2.457	0.745	1.003	-117.004	94.788	196.594	39.61	84.18	-114.55	22.932	-29.988	-19.698	0.08347	-0.56461	-0.12146	0.81201	23.4	13111	100
2025-5-25 10:3:49.765	WT901BLE68(801231B9234C)	-2.170	0.340	0.933	-102.722	87.036	148.254	64.41	82.41	-87.82	22.932	-29.988	-19.698	0.08347	-0.56461	-0.12146	0.81201	23.4	13111	100
2025-5-25 10:3:49.811	WT901BLE68(801231B9234C)	-1.784	-0.063	0.770	-107.483	62.134	125.671	75.55	80.19	-74.80	22.932	-29.988	-19.698	0.08347	-0.56461	-0.12146	0.81201	23.4	13111	100
2025-5-25 10:3:49.811	WT901BLE68(801231B9234C)	-1.442	-0.262	0.643	-103.271	9.644	117.432	78.15	77.90	-70.46	22.932	-29.988	-19.698	0.08347	-0.56461	-0.12146	0.81201	23.4	13111	100
2025-5-25 10:3:49.835	WT901BLE68(801231B9234C)	-0.959	-0.369	0.565	-99.548	-32.410	104.065	75.89	75.72	-71.09	24.696	-37.534	-8.330	0.08347	-0.56461	-0.12146	0.81201	23.4	13111	100
2025-5-25 10:3:49.835	WT901BLE68(801231B9234C)	-0.433	-0.449	0.429	-95.581	-45.898	99.182	72.32	73.64	-73.15	24.696	-37.534	-8.330	0.08347	-0.56461	-0.12146	0.81201	23.4	13111	100
2025-5-25 10:3:49.878	WT901BLE68(801231B9234C)	-0.053	-0.473	0.311	-91.980	-42.847	103.333	69.37	71.56	-74.65	24.696	-37.534	-8.330	0.08347	-0.56461	-0.12146	0.81201	23.4	13111	100
2025-5-25 10:3:49.879	WT901BLE68(801231B9234C)	0.038	-0.539	0.209	-93.445	-33.997	99.121	67.14	69.56	-75.39	24.696	-37.534	-8.330	0.08347	-0.56461	-0.12146	0.81201	23.4	13111	100
2025-5-25 10:3:49.927	WT901BLE68(801231B9234C)	-0.194	-0.768	0.192	-88.684	-11.108	76.355	65.53	68.08	-75.49	24.696	-37.534	-8.330	0.08347	-0.56461	-0.12146	0.81201	23.4	13111	100
2025-5-25 10:3:49.928	WT901BLE68(801231B9234C)	-0.498	-1.198	0.250	-70.007	19.348	28.748	64.70	67.64	-74.99	24.696	-37.534	-8.330	0.08347	-0.56461	-0.12146	0.81201	23.4	13111	100
2025-5-25 10:3:49.967	WT901BLE68(801231B9234C)	-0.681	-1.327	0.262	-40.100	26.978	-34.729	63.89	68.55	-74.99	24.696	-37.534	-8.330	0.08347	-0.56461	-0.12146	0.81201	23.4	13111	100
2025-5-25 10:3:49.968	WT901BLE68(801231B9234C)	-0.218	-0.680	0.221	-25.330	-6.165	-95.764	61.19	70.52	-77.40	24.696	-37.534	-8.330	0.08347	-0.56461	-0.12146	0.81201	23.4	13111	100
2025-5-25 10:3:50.13	WT901BLE68(801231B9234C)	-0.244	-0.907	0.083	18.250	-62.012	-148.010	53.92	72.81	-85.28	24.696	-37.534	-8.330	0.08347	-0.56461	-0.12146	0.81201	23.4	13111	100
2025-5-25 10:3:50.13	WT901BLE68(801231B9234C)	-0.619	-0.625	0.045	43.945	-63.354	-202.087	41.79	75.04	-98.82	24.696	-37.534	-8.330	0.08347	-0.56461	-0.12146	0.81201	23.4	13111	100
2025-5-25 10:3:50.38	WT901BLE68(801231B9234C)	-1.342	-0.640	0.176	79.346	14.160	-249.268	24.66	77.70	-117.93	24.696	-37.534	-8.330	-0.26495	-0.60928	-0.17285	0.72705	23.4	13111	100
2025-5-25 10:3:50.38	WT901BLE68(801231B9234C)	-3.466	-1.016	0.474	111.877	108.032	-274.963	-0.49	80.47	-145.74	24.696	-37.534	-8.330	-0.26495	-0.60928	-0.17285	0.72705	23.4	13111	100
2025-5-25 10:3:50.83	WT901BLE68(801231B9234C)	-4.188	-0.405	0.790	96.069	60.852	-324.402	-38.07	80.16	173.91	24.696	-37.534	-8.330	-0.26495	-0.60928	-0.17285	0.72705	23.4	13111	100
2025-5-25 10:3:50.83	WT901BLE68(801231B9234C)	-2.974	0.310	0.392	113.892	-161.255	-219.421	-48.51	75.12	160.96	24.696	-37.534	-8.330	-0.26495	-0.60928	-0.17285	0.72705	23.4	13111	100
2025-5-25 10:3:50.126	WT901BLE68(801231B9234C)	-1.984	1.060	0.618	143.494	-246.155	-213.074	-44.98	68.90	161.62	24.696	-37.534	-8.330	-0.26495	-0.60928	-0.17285	0.72705	23.4	13111	100
2025-5-25 10:3:50.127	WT901BLE68(801231B9234C)	-1.531	1.434	0.506	154.053	-137.512	-192.505	-42.32	63.47	161.10	24.696	-37.534	-8.330	-0.26495	-0.60928	-0.17285	0.72705	23.4	13111	100
2025-5-25 10:3:50.170	WT901BLE68(801231B9234C)	-1.226	1.306	0.356	129.333	27.222	-143.555	-43.03	61.11	157.09	24.696	-37.534	-8.330	-0.26495	-0.60928	-0.17285	0.72705	23.4	13111	100
2025-5-25 10:3:50.170	WT901BLE68(801231B9234C)	-0.918	1.060	0.198	135.986	108.337	-89.478	-44.92	61.20	151.87	24.696	-37.534	-8.330	-0.26495	-0.60928	-0.17285	0.72705	23.4	13111	100
2025-5-25 10:3:50.216	WT901BLE68(801231B9234C)	-0.645	0.846	0.127	138.855	91.858	-56.702	-46.10	62.09	147.40	24.696	-37.534	-8.330	-0.26495	-0.60928	-0.17285	0.72705	23.4	13111	100
2025-5-25 10:3:50.216	WT901BLE68(801231B9234C)	-0.245	0.715	0.101	128.540	38.330	-33.508	-45.69	62.73	144.95	24.696	-37.534	-8.330	-0.26495	-0.60928	-0.17285	0.72705	23.4	13111	100
2025-5-25 10:3:50.239	WT901BLE68(801231B9234C)	0.253	0.712	0.062	112.183	-13.123	-13.245	-43.48	62.95	144.84	34.888	-26.460	-10.682	-0.26495	-0.60928	-0.17285	0.72705	23.4	13111	100
2025-5-25 10:3:50.239	WT901BLE68(801231B9234C)	0.573	0.762	-0.034	91.187	-27.100	-4.456	-40.46	62.97	146.13	34.888	-26.460	-10.682	-0.26495	-0.60928	-0.17285	0.72705	23.4	13111	100
2025-5-25 10:3:50.283	WT901BLE68(801231B9234C)	0.695	0.760	-0.141	73.669	-11.780	-19.592	-38.90	63.08	146.83	34.888	-26.460	-10.682	-0.26495	-0.60928	-0.17285	0.72705	23.4	13111	100
2025-5-25 10:3:50.284	WT901BLE68(801231B9234C)	0.569	0.686	-0.171	40.894	6.531	-2.991	-39.20	63.48	146.67	34.888	-26.460	-10.682	-0.26495	-0.60928	-0.17285	0.72705	23.4	13111	100
2025-5-25 10:3:50.328	WT901BLE68(801231B9234C)	0.158	0.530	-0.128	2.808	19.470	44.739	-39.76	64.67	147.04	34.888	-26.460	-10.682	-0.26495	-0.60928	-0.17285	0.72705	23.4	13111	100
2025-5-25 10:3:50.328	WT901BLE68(801231B9234C)	-0.264	0.789	-0.193	-33.386	38.818	85.938	-40.10	66.79	148.33	34.888	-26.460	-10.682	-0.26495	-0.60928	-0.17285	0.72705	23.4	13111	100
2025-5-25 10:3:50.372	WT901BLE68(801231B9234C)	-0.624	1.226	-0.183	-97.107	45.288	164.612	-39.47	69.94	151.75	34.888	-26.460	-10.682	-0.26495	-0.60928	-0.17285	0.72705	23.4	13111	100
2025-5-25 10:3:50.373	WT901BLE68(801231B9234C)	-1.485	0.996	0.096	-177.246	4.150	219.177	-35.50	73.53	160.21	34.888	-26.460	-10.682	-0.26495	-0.60928	-0.17285	0.72705	23.4	13111	100
2025-5-25 10:3:50.426	WT901BLE68(801231B9234C)	-2.762	1.084	0.449	-210.144	57.007	208.252	-28.12	77.01	173.10	34.888	-26.460	-10.682	-0.26495	-0.60928	-0.17285	0.72705	23.4	13111	100
2025-5-25 10:3:50.426	WT901BLE68(801231B9234C)	-2.952	1.007	0.690	-233.765	114.868	248.535	-15.62	81.43	-168.30	34.888	-26.460	-10.682	-0.26495	-0.60928	-0.17285	0.72705	23.4	13111	100
2025-5-25 10:3:50.444	WT901BLE68(801231B9234C)	-2.449	0.826	0.847	-205.688	74.463	223.511	16.79	83.16	-131.12	34.888	-26.460	-10.682	-0.23895	-0.64496	-0.16766	0.70618	23.4	13111	100
2025-5-25 10:3:50.444	WT901BLE68(801231B9234C)	-1.941	0.645	0.848	-188.843	107.666	172.119	45.13	82.48	-98.98	34.888	-26.460	-10.682	-0.23895	-0.64496	-0.16766	0.70618	23.4	13111	100
2025-5-25 10:3:50.487	WT901BLE68(801231B9234C)	-2.051	0.225	0.793	-167.786	145.264	157.898	66.98	80.91	-73.67	34.888	-26.460	-10.682	-0.23895	-0.64496	-0.16766	0.70618	23.4	13111	100
2025-5-25 10:3:50.488	WT901BLE68(801231B9234C)	-2.001	-0.146	0.841	-163.086	138.916	133.789	82.15	78.74	-55.29	34.888	-26.460	-10.682	-0.23895	-0.64496	-0.16766	0.70618	23.4	13111	100
2025-5-25 10:3:50.554	WT901BLE68(801231B9234C)	-1.366	-0.249	0.732	-137.817	16.541	104.614	84.97	76.64	-49.70	34.888	-26.460	-10.682	-0.23895	-0.64496	-0.16766	0.70618	23.4	13111	100
2025-5-25 10:3:50.554	WT901BLE68(801231B9234C)	-0.742	-0.175	0.559	-121.277	-73.364	96.985	79.37	74.65	-53.30	34.888	-26.460	-10.682	-0.23895	-0.64496	-0.16766	0.70618	23.4	13111	100
2025-5-25 10:3:50.625	WT901BLE68(801231B9234C)	-0.312	-0.289	0.358	-110.291	-75.806	107.849	72.90	72.37	-58.08	34.888	-26.460	-10.682	-0.23895	-0.64496	-0.16766	0.70618	23.4	13111	100
2025-5-25 10:3:50.625	WT901BLE68(801231B9234C)	-0.120	-0.461	0.253	-107.483	-38.147	113.708	69.51	70.05	-59.82	34.888	-26.460	-10.682	-0.23895	-0.64496	-0.16766	0.70618	23.4	13111	100
2025-5-25 10:3:50.626	WT901BLE68(801231B9234C)	-0.043	-0.763	0.218	-97.900	-21.484	90.942	67.57	68.19	-60.05	34.888	-26.460	-10.682	-0.23895	-0.64496	-0.16766	0.70618	23.4	13111	100
2025-5-25 10:3:50.626	WT901BLE68(801231B9234C)	0.040	-1.042	0.244	-72.632	-32.776	53.040	65.58	67.05	-60.79	34.888	-26.460	-10.682	-0.23895	-0.64496	-0.16766	0.70618	23.4	13111	100
2025-5-25 10:3:50.645	WT901BLE68(801231B9234C)	0.214	-1.304	0.245	-61.768	-79.041	-16.907	61.45	66.71	-64.19	34.888	-26.460	-10.682	-0.23895	-0.64496	-0.16766	0.70618	23.4	13111	100
2025-5-25 10:3:50.646	WT901BLE68(801231B9234C)	0.085	-1.479	0.062	-21.851	-84.473	-70.618	54.96	67.30	-70.61	15.876	-30.968	-23.226	-0.23895	-0.64496	-0.16766	0.70618	23.4	13111	100
2025-5-25 10:3:50.688	WT901BLE68(801231B9234C)	-0.242	-1.438	-0.134	15.808	-56.824	-104.614	48.96	68.61	-77.42	15.876	-30.968	-23.226	-0.23895	-0.64496	-0.16766	0.70618	23.4	13111	100
2025-5-25 10:3:50.688	WT901BLE68(801231B9234C)	-0.737	-1.337	-0.203	77.576	-96.130	-163.025	40.62	70.13	-87.57	15.876	-30.968	-23.226	-0.23895	-0.64496	-0.16766	0.70618	23.4	13111	100
2025-5-25 10:3:50.734	WT901BLE68(801231B9234C)	-1.402	-1.047	-0.004	126.831	-107.361	-231.628	28.22	71.31	-103.11	15.876	-30.968	-23.226	-0.23895	-0.64496	-0.16766	0.70618	23.4	13111	100
2025-5-25 10:3:50.734	WT901BLE68(801231B9234C)	-2.757	-0.834	0.575	140.076	-62.378	-252.197	13.75	71.97	-121.31	15.876	-30.968	-23.226	-0.23895	-0.64496	-0.16766	0.70618	23.4	13111	100
2025-5-25 10:3:50.779	WT901BLE68(801231B9234C)	-3.633	-0.096	1.575	90.515	-48.889	-232.544	-0.72	71.82	-138.97	15.876	-30.968	-23.226	-0.23895	-0.64496	-0.16766	0.70618	23.4	13111	100
2025-5-25 10:3:50.779	WT901BLE68(801231B9234C)	-3.220	-0.082	1.297	55.786	-115.784	-264.771	-13.45	69.65	-153.78	15.876	-30.968	-23.226	-0.23895	-0.64496	-0.16766	0.70618	23.4	13111	100
2025-5-25 10:3:50.803	WT901BLE68(801231B9234C)	-2.560	0.465	0.723	75.623	-184.875	-281.799	-22.25	64.68	-164.94	15.876	-30.968	-23.226	-0.23895	-0.64496	-0.16766	0.70618	23.4	13111	100
2025-5-25 10:3:50.803	WT901BLE68(801231B9234C)	-2.070	1.107	0.740	88.440	-113.037	-294.312	-28.23	59.70	-173.69	15.876	-30.968	-23.226	-0.23895	-0.64496	-0.16766	0.70618	23.4	13111	100
2025-5-25 10:3:50.847	WT901BLE68(801231B9234C)	-1.617	1.233	0.754	97.107	-31.189	-280.334	-32.90	55.94	178.41	15.876	-30.968	-23.226	-0.09494	-0.44540	-0.24286	0.85645	23.4	13111	100
2025-5-25 10:3:50.848	WT901BLE68(801231B9234C)	-1.070	1.257	0.517	106.079	30.396	-231.995	-36.50	53.54	171.40	15.876	-30.968	-23.226	-0.09494	-0.44540	-0.24286	0.85645	23.4	13111	100
2025-5-25 10:3:50.891	WT901BLE68(801231B9234C)	-0.669	1.123	0.306	114.746	70.984	-168.762	-38.79	52.49	165.71	15.876	-30.968	-23.226	-0.09494	-0.44540	-0.24286	0.85645	23.4	13111	100
2025-5-25 10:3:50.891	WT901BLE68(801231B9234C)	-0.429	0.809	0.221	122.986	109.131	-131.958	-40.41	52.58	160.64	15.876	-30.968	-23.226	-0.09494	-0.44540	-0.24286	0.85645	23.4	13111	100
2025-5-25 10:3:50.935	WT901BLE68(801231B9234C)	-0.144	0.662	0.120	126.160	103.210	-102.112	-41.60	53.25	156.08	15.876	-30.968	-23.226	-0.09494	-0.44540	-0.24286	0.85645	23.4	13111	100
2025-5-25 10:3:50.936	WT901BLE68(801231B9234C)	0.197	0.676	0.002	122.009	80.139	-84.839	-42.10	53.91	152.57	15.876	-30.968	-23.226	-0.09494	-0.44540	-0.24286	0.85645	23.4	13111	100
2025-5-25 10:3:50.980	WT901BLE68(801231B9234C)	0.388	0.750	-0.167	125.854	64.331	-69.458	-42.13	54.55	149.89	15.876	-30.968	-23.226	-0.09494	-0.44540	-0.24286	0.85645	23.4	13111	100
2025-5-25 10:3:50.981	WT901BLE68(801231B9234C)	0.603	0.914	-0.210	108.032	41.016	-59.998	-42.17	55.16	147.91	15.876	-30.968	-23.226	-0.09494	-0.44540	-0.24286	0.85645	23.4	13111	100
2025-5-25 10:3:51.5	WT901BLE68(801231B9234C)	0.579	0.945	-0.480	80.505	12.451	-26.855	-42.45	55.67	146.61	15.876	-30.968	-23.226	-0.09494	-0.44540	-0.24286	0.85645	23.4	13111	100
2025-5-25 10:3:51.5	WT901BLE68(801231B9234C)	-0.089	0.955	-0.171	54.077	11.658	46.509	-41.89	56.65	147.24	15.876	-30.968	-23.226	-0.09494	-0.44540	-0.24286	0.85645	23.4	13111	100
2025-5-25 10:3:51.49	WT901BLE68(801231B9234C)	-0.117	1.151	0.260	18.677	77.209	108.521	-41.42	59.48	148.27	34.986	-24.500	-10.486	-0.09494	-0.44540	-0.24286	0.85645	23.4	13111	100
2025-5-25 10:3:51.49	WT901BLE68(801231B9234C)	-0.066	1.049	0.419	-36.804	43.762	200.867	-40.25	63.13	151.51	34.986	-24.500	-10.486	-0.09494	-0.44540	-0.24286	0.85645	23.4	13111	100
2025-5-25 10:3:51.93	WT901BLE68(801231B9234C)	-1.047	1.006	0.570	-70.923	27.954	209.656	-36.21	67.17	158.37	34.986	-24.500	-10.486	-0.09494	-0.44540	-0.24286	0.85645	23.4	13111	100
2025-5-25 10:3:51.94	WT901BLE68(801231B9234C)	-2.078	1.161	0.918	-118.225	11.597	219.482	-30.98	70.56	167.47	34.986	-24.500	-10.486	-0.09494	-0.44540	-0.24286	0.85645	23.4	13111	100
2025-5-25 10:3:51.138	WT901BLE68(801231B9234C)	-2.222	1.086	0.951	-126.465	19.897	242.615	-21.59	72.57	179.52	34.986	-24.500	-10.486	-0.09494	-0.44540	-0.24286	0.85645	23.4	13111	100
2025-5-25 10:3:51.138	WT901BLE68(801231B9234C)	-2.374	1.073	1.146	-113.403	2.686	285.522	-6.23	73.50	-163.11	34.986	-24.500	-10.486	-0.09494	-0.44540	-0.24286	0.85645	23.4	13111	100
2025-5-25 10:3:51.162	WT901BLE68(801231B9234C)	-2.172	0.902	1.299	-96.008	38.086	239.746	9.61	73.34	-145.34	34.986	-24.500	-10.486	-0.09494	-0.44540	-0.24286	0.85645	23.4	13111	100
2025-5-25 10:3:51.163	WT901BLE68(801231B9234C)	-1.875	0.449	1.244	-63.232	47.546	199.158	22.37	72.65	-130.97	34.986	-24.500	-10.486	-0.09494	-0.44540	-0.24286	0.85645	23.4	13111	100
2025-5-25 10:3:51.207	WT901BLE68(801231B9234C)	-1.421	0.214	1.162	-38.757	66.040	164.307	32.65	71.74	-119.57	34.986	-24.500	-10.486	-0.09494	-0.44540	-0.24286	0.85645	23.4	13111	100
2025-5-25 10:3:51.208	WT901BLE68(801231B9234C)	-0.972	-0.105	0.913	-30.396	52.551	133.179	40.32	70.75	-111.08	34.986	-24.500	-10.486	-0.09494	-0.44540	-0.24286	0.85645	23.4	13111	100
2025-5-25 10:3:51.251	WT901BLE68(801231B9234C)	-0.631	-0.207	0.647	-26.123	39.673	119.812	45.88	69.55	-104.90	34.986	-24.500	-10.486	-0.29587	-0.61270	-0.05243	0.73087	23.4	13111	100
2025-5-25 10:3:51.252	WT901BLE68(801231B9234C)	-0.446	-0.216	0.425	-25.024	19.409	114.441	49.87	68.10	-100.40	34.986	-24.500	-10.486	-0.29587	-0.61270	-0.05243	0.73087	23.4	13111	100
2025-5-25 10:3:51.298	WT901BLE68(801231B9234C)	-0.273	-0.363	0.334	-24.658	-0.488	97.290	52.10	66.52	-97.70	34.986	-24.500	-10.486	-0.29587	-0.61270	-0.05243	0.73087	23.4	13111	100
2025-5-25 10:3:51.298	WT901BLE68(801231B9234C)	-0.126	-0.613	0.311	-18.372	-11.597	77.148	53.04	65.10	-96.45	34.986	-24.500	-10.486	-0.29587	-0.61270	-0.05243	0.73087	23.4	13111	100
2025-5-25 10:3:51.341	WT901BLE68(801231B9234C)	-0.221	-1.042	0.388	-12.512	-3.418	42.969	53.21	64.22	-96.15	34.986	-24.500	-10.486	-0.29587	-0.61270	-0.05243	0.73087	23.4	13111	100
2025-5-25 10:3:51.342	WT901BLE68(801231B9234C)	-0.521	-1.537	0.401	-7.324	3.113	3.967	52.44	64.24	-96.90	34.986	-24.500	-10.486	-0.29587	-0.61270	-0.05243	0.73087	23.4	13111	100
2025-5-25 10:3:51.365	WT901BLE68(801231B9234C)	-0.738	-1.596	0.371	11.108	-8.240	-56.519	50.20	65.19	-99.43	34.986	-24.500	-10.486	-0.29587	-0.61270	-0.05243	0.73087	23.4	13111	100
2025-5-25 10:3:51.365	WT901BLE68(801231B9234C)	-0.925	-1.319	0.438	30.762	-40.955	-113.708	45.85	66.60	-104.69	34.986	-24.500	-10.486	-0.29587	-0.61270	-0.05243	0.73087	23.4	13111	100
2025-5-25 10:3:51.411	WT901BLE68(801231B9234C)	-1.245	-0.966	0.530	47.729	-76.477	-169.189	38.03	68.05	-114.04	34.986	-24.500	-10.486	-0.29587	-0.61270	-0.05243	0.73087	23.4	13111	100
2025-5-25 10:3:51.411	WT901BLE68(801231B9234C)	-1.502	-0.783	0.565	55.847	-115.662	-234.253	26.21	68.88	-127.86	34.986	-24.500	-10.486	-0.29587	-0.61270	-0.05243	0.73087	23.4	13111	100
2025-5-25 10:3:51.454	WT901BLE68(801231B9234C)	-2.087	-0.556	0.470	62.500	-139.709	-283.569	11.33	68.29	-145.15	14.504	-39.984	-15.092	-0.29587	-0.61270	-0.05243	0.73087	23.4	13111	100
2025-5-25 10:3:51.454	WT901BLE68(801231B9234C)	-3.507	-0.183	0.783	59.509	-153.748	-313.354	-3.05	65.81	-162.09	14.504	-39.984	-15.092	-0.29587	-0.61270	-0.05243	0.73087	23.4	13111	100
2025-5-25 10:3:51.498	WT901BLE68(801231B9234C)	-3.262	0.672	1.306	16.846	-171.143	-287.354	-13.68	61.74	-174.82	14.504	-39.984	-15.092	-0.29587	-0.61270	-0.05243	0.73087	23.4	13111	100
2025-5-25 10:3:51.498	WT901BLE68(801231B9234C)	-2.607	1.354	1.022	42.908	-190.552	-199.158	-18.93	57.04	178.30	14.504	-39.984	-15.092	-0.29587	-0.61270	-0.05243	0.73087	23.4	13111	100
2025-5-25 10:3:51.544	WT901BLE68(801231B9234C)	-1.926	1.847	0.836	47.302	-121.094	-194.580	-21.23	52.95	174.11	14.504	-39.984	-15.092	-0.29587	-0.61270	-0.05243	0.73087	23.4	13111	100
2025-5-25 10:3:51.544	WT901BLE68(801231B9234C)	-1.390	1.865	0.601	37.292	21.545	-199.036	-24.41	51.11	168.87	14.504	-39.984	-15.092	-0.29587	-0.61270	-0.05243	0.73087	23.4	13111	100
2025-5-25 10:3:51.588	WT901BLE68(801231B9234C)	-0.613	1.454	0.328	51.941	95.581	-170.776	-28.02	51.27	163.04	14.504	-39.984	-15.092	-0.29587	-0.61270	-0.05243	0.73087	23.4	13111	100
2025-5-25 10:3:51.588	WT901BLE68(801231B9234C)	-0.175	1.073	0.170	90.942	112.244	-136.536	-30.47	52.10	157.85	14.504	-39.984	-15.092	-0.29587	-0.61270	-0.05243	0.73087	23.4	13111	100
2025-5-25 10:3:51.613	WT901BLE68(801231B9234C)	0.123	0.980	0.066	104.980	101.440	-122.864	-32.19	53.11	153.15	14.504	-39.984	-15.092	-0.29587	-0.61270	-0.05243	0.73087	23.4	13111	100
2025-5-25 10:3:51.614	WT901BLE68(801231B9234C)	0.463	1.021	-0.035	103.088	57.495	-109.070	-33.19	53.67	149.33	14.504	-39.984	-15.092	-0.29587	-0.61270	-0.05243	0.73087	23.4	13111	100
2025-5-25 10:3:51.656	WT901BLE68(801231B9234C)	0.778	1.083	-0.122	89.905	3.906	-92.041	-33.40	53.63	147.10	14.504	-39.984	-15.092	0.12946	-0.48215	-0.12308	0.85760	23.4	13111	100
2025-5-25 10:3:51.657	WT901BLE68(801231B9234C)	0.907	0.862	-0.312	84.900	-13.062	-83.008	-34.39	53.11	145.38	14.504	-39.984	-15.092	0.12946	-0.48215	-0.12308	0.85760	23.4	13111	100
2025-5-25 10:3:51.703	WT901BLE68(801231B9234C)	0.796	0.895	-0.246	72.632	-10.864	-32.043	-34.79	53.01	144.31	14.504	-39.984	-15.092	0.12946	-0.48215	-0.12308	0.85760	23.4	13111	100
2025-5-25 10:3:51.703	WT901BLE68(801231B9234C)	0.487	0.836	-0.104	52.307	18.616	64.026	-34.17	54.15	145.01	14.504	-39.984	-15.092	0.12946	-0.48215	-0.12308	0.85760	23.4	13111	100
2025-5-25 10:3:51.747	WT901BLE68(801231B9234C)	0.206	1.024	0.078	27.466	59.448	140.015	-32.60	57.00	147.30	14.504	-39.984	-15.092	0.12946	-0.48215	-0.12308	0.85760	23.4	13111	100
2025-5-25 10:3:51.747	WT901BLE68(801231B9234C)	-0.598	0.990	0.314	-9.216	74.646	179.565	-30.19	60.81	151.22	14.504	-39.984	-15.092	0.12946	-0.48215	-0.12308	0.85760	23.4	13111	100
