time	DeviceName	AccX(g)	AccY(g)	AccZ(g)	AsX(°/s)	AsY(°/s)	AsZ(°/s)	AngleX(°)	AngleY(°)	AngleZ(°)	HX(uT)	HY(uT)	HZ(uT)	Q0()	Q1()	Q2()	Q3()	Temperature(°C)	Version()	Battery level(%)
2025-5-25 10:15:22.187	WT901BLE68(801231B9234C)	0.217	0.783	-0.112	61.523	82.581	131.836	30.28	60.13	-50.91	26.656	-18.326	-28.714	0.70514	0.34818	0.36563	-0.49774	22.8	13111	100
2025-5-25 10:15:22.187	WT901BLE68(801231B9234C)	-0.236	0.957	-0.081	24.231	95.459	182.739	39.06	59.53	-41.54	26.656	-18.326	-28.714	0.70514	0.34818	0.36563	-0.49774	22.8	13111	100
2025-5-25 10:15:22.232	WT901BLE68(801231B9234C)	-0.629	1.219	-0.005	-11.353	77.209	214.783	47.21	57.65	-32.03	26.656	-18.326	-28.714	0.70514	0.34818	0.36563	-0.49774	22.8	13111	100
2025-5-25 10:15:22.232	WT901BLE68(801231B9234C)	-1.363	1.480	0.190	-50.293	55.481	254.333	53.45	54.40	-23.59	25.284	-1.862	-30.870	0.70514	0.34818	0.36563	-0.49774	22.8	13111	100
2025-5-25 10:15:22.254	WT901BLE68(801231B9234C)	-1.995	3.357	0.437	-72.083	65.369	278.503	58.00	50.22	-16.00	25.284	-1.862	-30.870	0.70514	0.34818	0.36563	-0.49774	22.8	13111	100
2025-5-25 10:15:22.254	WT901BLE68(801231B9234C)	-1.900	3.930	0.583	-72.571	75.562	291.809	61.54	45.75	-9.09	25.284	-1.862	-30.870	0.70514	0.34818	0.36563	-0.49774	22.8	13111	100
2025-5-25 10:15:22.297	WT901BLE68(801231B9234C)	-1.883	1.619	0.809	-73.425	73.975	289.734	64.14	41.00	-3.07	25.284	-1.862	-30.870	0.70514	0.34818	0.36563	-0.49774	22.8	13111	100
2025-5-25 10:15:22.297	WT901BLE68(801231B9234C)	-1.801	1.345	0.862	-65.247	76.599	281.982	65.84	36.34	2.06	25.284	-1.862	-30.870	0.70514	0.34818	0.36563	-0.49774	22.8	13111	100
2025-5-25 10:15:22.342	WT901BLE68(801231B9234C)	-1.846	1.011	0.881	-54.565	99.792	262.817	67.23	32.03	6.85	25.284	-1.862	-30.870	0.70514	0.34818	0.36563	-0.49774	22.8	13111	100
2025-5-25 10:15:22.342	WT901BLE68(801231B9234C)	-1.858	0.766	0.853	-48.340	115.723	238.342	68.49	28.34	11.49	25.284	-1.862	-30.870	0.70514	0.34818	0.36563	-0.49774	22.8	13111	100
2025-5-25 10:15:22.387	WT901BLE68(801231B9234C)	-1.579	0.420	0.810	-35.461	88.440	200.378	69.33	25.20	15.29	25.284	-1.862	-30.870	0.70514	0.34818	0.36563	-0.49774	22.8	13111	100
2025-5-25 10:15:22.388	WT901BLE68(801231B9234C)	-1.139	0.175	0.726	-22.339	45.898	159.119	69.77	22.63	17.66	25.284	-1.862	-30.870	0.70514	0.34818	0.36563	-0.49774	22.8	13111	100
2025-5-25 10:15:22.432	WT901BLE68(801231B9234C)	-0.817	-0.042	0.615	-13.367	34.241	124.573	70.04	20.64	19.05	25.284	-1.862	-30.870	0.70514	0.34818	0.36563	-0.49774	22.8	13111	100
2025-5-25 10:15:22.432	WT901BLE68(801231B9234C)	-0.663	-0.218	0.537	-11.780	51.575	96.741	70.37	19.34	20.19	25.284	-1.862	-30.870	0.70514	0.34818	0.36563	-0.49774	22.8	13111	100
2025-5-25 10:15:22.457	WT901BLE68(801231B9234C)	-0.829	-0.381	0.495	-19.836	89.050	66.833	70.78	18.83	21.57	25.284	-1.862	-30.870	0.80463	0.54111	0.23636	0.06165	22.8	13111	100
2025-5-25 10:15:22.457	WT901BLE68(801231B9234C)	-1.148	-0.610	0.438	-27.588	106.262	29.236	71.19	19.17	23.10	25.284	-1.862	-30.870	0.80463	0.54111	0.23636	0.06165	22.8	13111	100
2025-5-25 10:15:22.499	WT901BLE68(801231B9234C)	-1.222	-0.985	0.456	-33.325	77.454	-29.968	71.46	20.43	24.10	25.284	-1.862	-30.870	0.80463	0.54111	0.23636	0.06165	22.8	13111	100
2025-5-25 10:15:22.499	WT901BLE68(801231B9234C)	-1.012	-1.199	0.423	-25.696	8.789	-101.440	71.35	22.68	23.46	25.284	-1.862	-30.870	0.80463	0.54111	0.23636	0.06165	22.8	13111	100
2025-5-25 10:15:22.545	WT901BLE68(801231B9234C)	-0.951	-1.104	0.364	-19.653	-28.076	-176.331	70.81	26.08	21.29	25.284	-1.862	-30.870	0.80463	0.54111	0.23636	0.06165	22.8	13111	100
2025-5-25 10:15:22.545	WT901BLE68(801231B9234C)	-1.008	-1.099	0.336	-5.798	-34.790	-247.131	69.91	30.68	18.29	25.284	-1.862	-30.870	0.80463	0.54111	0.23636	0.06165	22.8	13111	100
2025-5-25 10:15:22.590	WT901BLE68(801231B9234C)	-1.104	-0.607	0.314	3.296	-31.982	-297.119	68.78	36.45	14.60	25.284	-1.862	-30.870	0.80463	0.54111	0.23636	0.06165	22.8	13111	100
2025-5-25 10:15:22.591	WT901BLE68(801231B9234C)	-1.341	-0.375	0.407	19.897	-31.860	-326.904	67.04	42.82	10.11	25.284	-1.862	-30.870	0.80463	0.54111	0.23636	0.06165	22.8	13111	100
2025-5-25 10:15:22.634	WT901BLE68(801231B9234C)	-1.919	-0.093	0.522	40.222	16.846	-328.064	65.35	49.50	5.59	25.284	-1.862	-30.870	0.80463	0.54111	0.23636	0.06165	22.8	13111	100
2025-5-25 10:15:22.635	WT901BLE68(801231B9234C)	-3.177	0.214	0.574	30.823	64.758	-307.312	63.97	56.23	1.92	25.284	-1.862	-30.870	0.80463	0.54111	0.23636	0.06165	22.8	13111	100
2025-5-25 10:15:22.659	WT901BLE68(801231B9234C)	-3.583	0.449	0.688	21.057	39.856	-306.763	61.78	62.65	-1.95	30.968	-6.272	-24.402	0.80463	0.54111	0.23636	0.06165	22.8	13111	100
2025-5-25 10:15:22.659	WT901BLE68(801231B9234C)	-2.646	1.226	0.691	27.771	-107.971	-318.848	53.27	67.77	-12.55	30.968	-6.272	-24.402	0.80463	0.54111	0.23636	0.06165	22.8	13111	100
2025-5-25 10:15:22.702	WT901BLE68(801231B9234C)	-1.710	1.880	0.611	57.373	-173.035	-282.593	37.46	69.94	-30.66	30.968	-6.272	-24.402	0.80463	0.54111	0.23636	0.06165	22.8	13111	100
2025-5-25 10:15:22.702	WT901BLE68(801231B9234C)	-1.234	2.133	0.505	55.664	-82.336	-233.643	23.84	70.41	-46.40	30.968	-6.272	-24.402	0.80463	0.54111	0.23636	0.06165	22.8	13111	100
2025-5-25 10:15:22.753	WT901BLE68(801231B9234C)	-0.951	1.675	0.349	66.833	25.513	-190.491	14.43	71.64	-57.40	30.968	-6.272	-24.402	0.80463	0.54111	0.23636	0.06165	22.8	13111	100
2025-5-25 10:15:22.753	WT901BLE68(801231B9234C)	-0.571	1.448	0.172	110.168	58.350	-140.198	8.83	73.37	-64.93	30.968	-6.272	-24.402	0.80463	0.54111	0.23636	0.06165	22.8	13111	100
2025-5-25 10:15:22.794	WT901BLE68(801231B9234C)	-0.296	1.514	0.190	136.353	44.006	-102.539	5.19	74.75	-71.09	30.968	-6.272	-24.402	0.80463	0.54111	0.23636	0.06165	22.8	13111	100
2025-5-25 10:15:22.794	WT901BLE68(801231B9234C)	-0.052	1.345	0.221	147.034	18.494	-82.642	3.46	75.63	-75.50	30.968	-6.272	-24.402	0.80463	0.54111	0.23636	0.06165	22.8	13111	100
2025-5-25 10:15:22.829	WT901BLE68(801231B9234C)	0.248	1.103	0.112	145.935	-17.395	-70.068	2.46	75.79	-79.17	30.968	-6.272	-24.402	0.80463	0.54111	0.23636	0.06165	22.8	13111	100
2025-5-25 10:15:22.829	WT901BLE68(801231B9234C)	0.487	0.919	-0.080	144.836	-32.532	-46.814	3.00	75.48	-81.15	30.968	-6.272	-24.402	0.58820	0.41684	0.44250	-0.53323	22.8	13111	100
2025-5-25 10:15:22.862	WT901BLE68(801231B9234C)	0.541	0.921	-0.111	127.747	-31.921	-22.278	5.46	75.16	-81.05	30.968	-6.272	-24.402	0.58820	0.41684	0.44250	-0.53323	22.8	13111	100
2025-5-25 10:15:22.862	WT901BLE68(801231B9234C)	0.431	0.837	-0.072	93.872	-16.663	16.602	9.99	74.92	-78.21	30.968	-6.272	-24.402	0.58820	0.41684	0.44250	-0.53323	22.8	13111	100
2025-5-25 10:15:22.906	WT901BLE68(801231B9234C)	0.287	0.836	-0.087	50.903	14.771	69.031	17.55	74.90	-71.44	30.968	-6.272	-24.402	0.58820	0.41684	0.44250	-0.53323	22.8	13111	100
2025-5-25 10:15:22.906	WT901BLE68(801231B9234C)	0.201	0.800	-0.089	-7.080	38.025	127.136	28.48	74.65	-60.05	30.968	-6.272	-24.402	0.58820	0.41684	0.44250	-0.53323	22.8	13111	100
2025-5-25 10:15:22.950	WT901BLE68(801231B9234C)	-0.138	0.846	-0.007	-51.331	53.162	179.443	41.48	73.45	-45.54	30.968	-6.272	-24.402	0.58820	0.41684	0.44250	-0.53323	22.8	13111	100
2025-5-25 10:15:22.950	WT901BLE68(801231B9234C)	-0.929	0.924	0.072	-102.051	64.941	219.727	53.14	70.87	-31.25	30.968	-6.272	-24.402	0.58820	0.41684	0.44250	-0.53323	22.8	13111	100
2025-5-25 10:15:22.994	WT901BLE68(801231B9234C)	-2.043	1.225	0.210	-157.227	80.811	242.371	61.63	67.24	-19.00	30.968	-6.272	-24.402	0.58820	0.41684	0.44250	-0.53323	22.8	13111	100
2025-5-25 10:15:22.994	WT901BLE68(801231B9234C)	-2.278	1.442	0.371	-183.716	129.211	282.593	67.95	62.99	-7.82	30.968	-6.272	-24.402	0.58820	0.41684	0.44250	-0.53323	22.8	13111	100
2025-5-25 10:15:23.30	WT901BLE68(801231B9234C)	-2.399	1.146	0.493	-175.903	135.803	339.050	72.59	57.54	1.87	30.968	-6.272	-24.402	0.58820	0.41684	0.44250	-0.53323	22.8	13111	100
2025-5-25 10:15:23.30	WT901BLE68(801231B9234C)	-2.491	1.406	0.520	-147.095	245.483	267.944	77.23	52.71	11.48	30.968	-6.272	-24.402	0.58820	0.41684	0.44250	-0.53323	22.8	13111	100
2025-5-25 10:15:23.63	WT901BLE68(801231B9234C)	-2.433	0.953	0.460	-152.466	291.138	224.976	81.93	48.89	21.70	28.910	-3.038	-23.324	0.58820	0.41684	0.44250	-0.53323	22.8	13111	100
2025-5-25 10:15:23.63	WT901BLE68(801231B9234C)	-2.199	0.368	0.397	-115.234	240.173	188.171	85.18	45.51	29.93	28.910	-3.038	-23.324	0.58820	0.41684	0.44250	-0.53323	22.8	13111	100
2025-5-25 10:15:23.108	WT901BLE68(801231B9234C)	-1.855	0.067	0.349	-89.050	164.368	165.833	86.91	42.47	35.39	28.910	-3.038	-23.324	0.58820	0.41684	0.44250	-0.53323	22.8	13111	100
2025-5-25 10:15:23.109	WT901BLE68(801231B9234C)	-1.474	-0.068	0.269	-75.256	92.773	144.775	87.39	39.80	38.51	28.910	-3.038	-23.324	0.58820	0.41684	0.44250	-0.53323	22.8	13111	100
2025-5-25 10:15:23.152	WT901BLE68(801231B9234C)	-1.146	-0.244	0.226	-69.153	47.058	112.488	87.00	37.73	39.93	28.910	-3.038	-23.324	0.58820	0.41684	0.44250	-0.53323	22.8	13111	100
2025-5-25 10:15:23.152	WT901BLE68(801231B9234C)	-0.824	-0.329	0.208	-57.495	31.189	81.055	86.45	36.36	40.52	28.910	-3.038	-23.324	0.58820	0.41684	0.44250	-0.53323	22.8	13111	100
2025-5-25 10:15:23.196	WT901BLE68(801231B9234C)	-0.582	-0.579	0.215	-42.175	23.438	46.509	86.11	35.69	40.64	28.910	-3.038	-23.324	0.58820	0.41684	0.44250	-0.53323	22.8	13111	100
2025-5-25 10:15:23.197	WT901BLE68(801231B9234C)	-0.360	-0.676	0.271	-27.344	21.729	18.982	86.21	35.63	40.55	28.910	-3.038	-23.324	0.58820	0.41684	0.44250	-0.53323	22.8	13111	100
2025-5-25 10:15:23.243	WT901BLE68(801231B9234C)	-0.274	-0.886	0.343	-19.470	9.949	-6.348	86.48	36.04	40.22	28.910	-3.038	-23.324	0.58820	0.41684	0.44250	-0.53323	22.8	13111	100
2025-5-25 10:15:23.243	WT901BLE68(801231B9234C)	-0.280	-1.125	0.412	-12.146	-16.907	-47.302	86.71	37.18	39.36	28.910	-3.038	-23.324	0.58820	0.41684	0.44250	-0.53323	22.8	13111	100
2025-5-25 10:15:23.267	WT901BLE68(801231B9234C)	-0.102	-1.059	0.362	-8.972	-40.100	-94.666	86.74	39.20	37.92	28.910	-3.038	-23.324	0.71951	0.53650	0.44083	-0.00757	22.8	13111	100
2025-5-25 10:15:23.267	WT901BLE68(801231B9234C)	-0.208	-0.953	0.249	22.766	-26.184	-115.417	87.14	41.96	36.45	28.910	-3.038	-23.324	0.71951	0.53650	0.44083	-0.00757	22.8	13111	100
2025-5-25 10:15:23.312	WT901BLE68(801231B9234C)	-0.621	-0.768	0.226	56.946	7.019	-142.639	88.85	45.21	35.96	28.910	-3.038	-23.324	0.71951	0.53650	0.44083	-0.00757	22.8	13111	100
2025-5-25 10:15:23.313	WT901BLE68(801231B9234C)	-1.416	-0.523	0.262	85.693	22.522	-170.288	91.92	49.02	36.45	28.910	-3.038	-23.324	0.71951	0.53650	0.44083	-0.00757	22.8	13111	100
2025-5-25 10:15:23.356	WT901BLE68(801231B9234C)	-2.612	-0.286	0.333	102.173	0.977	-217.529	95.53	53.60	37.12	28.910	-3.038	-23.324	0.71951	0.53650	0.44083	-0.00757	22.8	13111	100
2025-5-25 10:15:23.356	WT901BLE68(801231B9234C)	-3.118	-0.081	0.434	87.219	-66.162	-219.360	98.43	58.67	36.90	28.910	-3.038	-23.324	0.71951	0.53650	0.44083	-0.00757	22.8	13111	100
2025-5-25 10:15:23.402	WT901BLE68(801231B9234C)	-3.558	0.242	0.575	54.138	-246.765	-222.473	95.27	63.97	30.58	28.910	-3.038	-23.324	0.71951	0.53650	0.44083	-0.00757	22.8	13111	100
2025-5-25 10:15:23.402	WT901BLE68(801231B9234C)	-3.092	0.805	0.578	4.883	-342.468	-239.075	81.99	68.87	14.48	28.910	-3.038	-23.324	0.71951	0.53650	0.44083	-0.00757	22.8	13111	100
2025-5-25 10:15:23.426	WT901BLE68(801231B9234C)	-1.792	1.075	0.471	-4.333	-382.324	-268.860	57.51	71.59	-11.64	28.910	-3.038	-23.324	0.71951	0.53650	0.44083	-0.00757	22.8	13111	100
2025-5-25 10:15:23.426	WT901BLE68(801231B9234C)	-1.417	1.507	0.410	62.134	-230.652	-242.859	35.34	71.26	-36.06	29.302	3.626	-18.228	0.71951	0.53650	0.44083	-0.00757	22.8	13111	100
2025-5-25 10:15:23.467	WT901BLE68(801231B9234C)	-1.464	1.374	0.417	64.209	1.831	-216.370	22.97	72.11	-50.16	29.302	3.626	-18.228	0.71951	0.53650	0.44083	-0.00757	22.8	13111	100
2025-5-25 10:15:23.467	WT901BLE68(801231B9234C)	-1.180	1.176	0.245	112.671	152.527	-161.011	16.19	75.36	-58.75	29.302	3.626	-18.228	0.71951	0.53650	0.44083	-0.00757	22.8	13111	100
2025-5-25 10:15:23.513	WT901BLE68(801231B9234C)	-0.726	1.151	0.040	156.677	162.231	-128.418	11.45	79.28	-66.21	29.302	3.626	-18.228	0.71951	0.53650	0.44083	-0.00757	22.8	13111	100
2025-5-25 10:15:23.513	WT901BLE68(801231B9234C)	-0.375	1.020	0.026	182.251	142.761	-84.045	8.26	82.59	-72.57	29.302	3.626	-18.228	0.71951	0.53650	0.44083	-0.00757	22.8	13111	100
2025-5-25 10:15:23.557	WT901BLE68(801231B9234C)	-0.153	0.897	0.035	181.519	132.324	-82.703	3.16	85.56	-80.95	29.302	3.626	-18.228	0.71951	0.53650	0.44083	-0.00757	22.8	13111	100
2025-5-25 10:15:23.557	WT901BLE68(801231B9234C)	0.037	0.870	-0.016	167.542	100.708	-79.590	-15.03	87.86	-102.18	29.302	3.626	-18.228	0.71951	0.53650	0.44083	-0.00757	22.8	13111	100
2025-5-25 10:15:23.582	WT901BLE68(801231B9234C)	0.355	0.871	-0.103	147.278	61.462	-86.853	-59.49	88.51	-149.17	29.302	3.626	-18.228	0.71951	0.53650	0.44083	-0.00757	22.8	13111	100
2025-5-25 10:15:23.582	WT901BLE68(801231B9234C)	0.429	0.918	-0.107	121.399	32.776	-69.580	-88.23	87.79	-179.99	29.302	3.626	-18.228	0.71951	0.53650	0.44083	-0.00757	22.8	13111	100
2025-5-25 10:15:23.626	WT901BLE68(801231B9234C)	0.313	0.837	-0.130	73.792	37.781	-54.016	-102.73	87.12	164.24	29.302	3.626	-18.228	0.71951	0.53650	0.44083	-0.00757	22.8	13111	100
2025-5-25 10:15:23.626	WT901BLE68(801231B9234C)	0.266	0.776	-0.216	-11.047	52.795	-6.287	-122.29	86.80	144.78	29.302	3.626	-18.228	0.46329	0.51263	0.51117	-0.51105	22.8	13111	100
2025-5-25 10:15:23.672	WT901BLE68(801231B9234C)	0.194	0.616	-0.185	-66.162	68.054	35.156	-151.56	86.39	117.00	29.302	3.626	-18.228	0.46329	0.51263	0.51117	-0.51105	22.8	13111	100
2025-5-25 10:15:23.672	WT901BLE68(801231B9234C)	0.060	0.775	-0.194	-105.896	84.412	72.449	178.57	84.92	89.36	29.302	3.626	-18.228	0.46329	0.51263	0.51117	-0.51105	22.8	13111	100
2025-5-25 10:15:23.729	WT901BLE68(801231B9234C)	-0.164	0.697	-0.498	-149.353	85.754	137.573	155.45	82.16	69.30	29.302	3.626	-18.228	0.46329	0.51263	0.51117	-0.51105	22.8	13111	100
2025-5-25 10:15:23.729	WT901BLE68(801231B9234C)	-1.309	0.681	-0.977	-171.021	72.754	206.421	138.18	78.09	55.46	29.302	3.626	-18.228	0.46329	0.51263	0.51117	-0.51105	22.8	13111	100
2025-5-25 10:15:23.760	WT901BLE68(801231B9234C)	-3.807	1.000	-0.733	-193.848	78.613	231.262	126.38	73.05	47.38	29.302	3.626	-18.228	0.46329	0.51263	0.51117	-0.51105	22.8	13111	100
2025-5-25 10:15:23.760	WT901BLE68(801231B9234C)	-3.167	0.797	0.418	-295.471	221.313	408.752	119.58	64.42	45.88	29.302	3.626	-18.228	0.46329	0.51263	0.51117	-0.51105	22.8	13111	100
2025-5-25 10:15:23.784	WT901BLE68(801231B9234C)	-2.140	0.716	0.589	-197.083	83.252	362.793	112.43	56.30	43.45	29.302	3.626	-18.228	0.46329	0.51263	0.51117	-0.51105	22.8	13111	100
2025-5-25 10:15:23.785	WT901BLE68(801231B9234C)	-2.786	1.089	0.681	-169.739	198.303	233.887	109.46	49.95	44.54	29.302	3.626	-18.228	0.46329	0.51263	0.51117	-0.51105	22.8	13111	100
2025-5-25 10:15:23.833	WT901BLE68(801231B9234C)	-2.600	0.621	0.451	-147.400	241.699	133.972	109.65	45.40	49.60	29.302	3.626	-18.228	0.46329	0.51263	0.51117	-0.51105	22.8	13111	100
2025-5-25 10:15:23.833	WT901BLE68(801231B9234C)	-2.116	0.155	0.278	-142.578	164.978	103.271	109.30	42.14	53.76	29.302	3.626	-18.228	0.46329	0.51263	0.51117	-0.51105	22.8	13111	100
2025-5-25 10:15:23.872	WT901BLE68(801231B9234C)	-1.651	-0.006	0.190	-129.211	72.083	70.923	107.84	40.20	55.78	34.104	-5.194	-4.312	0.46329	0.51263	0.51117	-0.51105	22.8	13111	100
2025-5-25 10:15:23.872	WT901BLE68(801231B9234C)	-1.168	-0.303	0.116	-125.671	-12.878	62.927	105.00	39.28	55.79	34.104	-5.194	-4.312	0.46329	0.51263	0.51117	-0.51105	22.8	13111	100
2025-5-25 10:15:23.930	WT901BLE68(801231B9234C)	-0.702	-0.535	0.060	-119.934	-70.374	50.842	101.50	38.89	53.94	34.104	-5.194	-4.312	0.46329	0.51263	0.51117	-0.51105	22.8	13111	100
2025-5-25 10:15:23.931	WT901BLE68(801231B9234C)	-0.284	-0.737	0.067	-115.784	-79.102	37.964	98.38	38.60	51.00	34.104	-5.194	-4.312	0.46329	0.51263	0.51117	-0.51105	22.8	13111	100
2025-5-25 10:15:23.963	WT901BLE68(801231B9234C)	-0.044	-1.008	0.144	-85.876	-68.604	11.292	95.92	38.61	48.34	34.104	-5.194	-4.312	0.46329	0.51263	0.51117	-0.51105	22.8	13111	100
2025-5-25 10:15:23.963	WT901BLE68(801231B9234C)	0.036	-1.210	0.241	-54.321	-56.519	-30.884	94.44	39.34	46.22	34.104	-5.194	-4.312	0.46329	0.51263	0.51117	-0.51105	22.8	13111	100
2025-5-25 10:15:24.23	WT901BLE68(801231B9234C)	0.058	-1.216	0.216	-19.775	-44.067	-78.674	93.98	41.05	44.64	34.104	-5.194	-4.312	0.46329	0.51263	0.51117	-0.51105	22.8	13111	100
2025-5-25 10:15:24.23	WT901BLE68(801231B9234C)	0.019	-1.065	0.123	16.907	-38.452	-108.582	94.53	43.51	43.53	34.104	-5.194	-4.312	0.46329	0.51263	0.51117	-0.51105	22.8	13111	100
2025-5-25 10:15:24.34	WT901BLE68(801231B9234C)	-0.257	-0.881	0.099	56.519	-36.377	-121.399	96.07	46.36	42.77	34.104	-5.194	-4.312	0.46329	0.51263	0.51117	-0.51105	22.8	13111	100
2025-5-25 10:15:24.34	WT901BLE68(801231B9234C)	-0.906	-0.649	0.121	104.492	-35.706	-130.127	98.72	49.43	42.34	34.104	-5.194	-4.312	0.46329	0.51263	0.51117	-0.51105	22.8	13111	100
2025-5-25 10:15:24.75	WT901BLE68(801231B9234C)	-2.541	-0.434	0.121	145.630	-47.363	-161.865	102.37	52.96	42.12	34.104	-5.194	-4.312	0.46329	0.51263	0.51117	-0.51105	22.8	13111	100
2025-5-25 10:15:24.75	WT901BLE68(801231B9234C)	-3.059	-0.293	0.333	128.052	-57.434	-217.468	106.44	57.55	42.23	34.104	-5.194	-4.312	0.61813	0.55148	0.51965	-0.20889	22.8	13111	100
2025-5-25 10:15:24.123	WT901BLE68(801231B9234C)	-3.500	0.002	0.700	88.806	-302.795	-194.092	105.73	62.81	37.73	34.104	-5.194	-4.312	0.61813	0.55148	0.51965	-0.20889	22.8	13111	100
2025-5-25 10:15:24.123	WT901BLE68(801231B9234C)	-3.487	0.673	0.669	39.429	-426.025	-160.156	91.80	67.81	19.79	34.104	-5.194	-4.312	0.61813	0.55148	0.51965	-0.20889	22.8	13111	100
2025-5-25 10:15:24.165	WT901BLE68(801231B9234C)	-1.782	1.216	0.644	-32.715	-420.837	-237.793	67.92	70.97	-6.09	34.104	-5.194	-4.312	0.61813	0.55148	0.51965	-0.20889	22.8	13111	100
2025-5-25 10:15:24.165	WT901BLE68(801231B9234C)	-1.348	1.760	0.295	76.416	-251.160	-216.370	45.41	71.33	-30.74	34.104	-5.194	-4.312	0.61813	0.55148	0.51965	-0.20889	22.8	13111	100
2025-5-25 10:15:24.189	WT901BLE68(801231B9234C)	-1.168	1.622	0.107	60.120	27.466	-182.983	35.32	72.72	-42.34	34.104	-5.194	-4.312	0.61813	0.55148	0.51965	-0.20889	22.8	13111	100
2025-5-25 10:15:24.189	WT901BLE68(801231B9234C)	-0.916	0.607	0.020	86.548	201.111	-104.553	36.05	76.58	-42.73	34.104	-5.194	-4.312	0.61813	0.55148	0.51965	-0.20889	22.8	13111	100
2025-5-25 10:15:24.232	WT901BLE68(801231B9234C)	-0.779	1.019	-0.131	150.513	246.216	-78.918	48.94	81.25	-31.74	34.104	-5.194	-4.312	0.61813	0.55148	0.51965	-0.20889	22.8	13111	100
2025-5-25 10:15:24.232	WT901BLE68(801231B9234C)	-0.566	0.961	0.010	148.560	199.036	-52.673	78.02	84.14	-4.92	34.104	-5.194	-4.312	0.61813	0.55148	0.51965	-0.20889	22.8	13111	100
2025-5-25 10:15:24.278	WT901BLE68(801231B9234C)	-0.377	0.757	0.109	149.963	129.944	-39.673	110.67	84.47	25.50	34.104	-5.194	-4.312	0.61813	0.55148	0.51965	-0.20889	22.8	13111	100
2025-5-25 10:15:24.278	WT901BLE68(801231B9234C)	0.057	0.709	0.136	125.549	23.315	-45.288	126.79	84.29	39.64	34.104	-5.194	-4.312	0.61813	0.55148	0.51965	-0.20889	22.8	13111	100
2025-5-25 10:15:24.330	WT901BLE68(801231B9234C)	0.497	0.676	0.068	98.145	-60.120	-30.396	126.51	84.86	37.83	27.636	6.566	-15.190	0.61813	0.55148	0.51965	-0.20889	22.8	13111	100
2025-5-25 10:15:24.330	WT901BLE68(801231B9234C)	0.782	0.561	-0.057	88.135	-89.233	-32.043	114.75	85.82	24.93	27.636	6.566	-15.190	0.61813	0.55148	0.51965	-0.20889	22.8	13111	100
2025-5-25 10:15:24.367	WT901BLE68(801231B9234C)	0.661	0.469	-0.160	52.856	-75.439	-3.723	98.16	86.10	7.56	27.636	6.566	-15.190	0.61813	0.55148	0.51965	-0.20889	22.8	13111	100
2025-5-25 10:15:24.367	WT901BLE68(801231B9234C)	0.604	0.496	-0.200	-17.090	-0.427	63.293	93.19	84.79	2.99	27.636	6.566	-15.190	0.61813	0.55148	0.51965	-0.20889	22.8	13111	100
2025-5-25 10:15:24.392	WT901BLE68(801231B9234C)	0.355	0.493	-0.287	-46.814	50.659	118.958	98.84	82.02	9.96	27.636	6.566	-15.190	0.61813	0.55148	0.51965	-0.20889	22.8	13111	100
2025-5-25 10:15:24.392	WT901BLE68(801231B9234C)	-0.304	0.795	-0.179	-90.698	58.105	168.579	102.16	78.02	15.19	27.636	6.566	-15.190	0.61813	0.55148	0.51965	-0.20889	22.8	13111	100
2025-5-25 10:15:24.435	WT901BLE68(801231B9234C)	-1.882	1.047	0.147	-171.021	28.442	191.589	100.48	73.38	16.72	27.636	6.566	-15.190	0.61813	0.55148	0.51965	-0.20889	22.8	13111	100
2025-5-25 10:15:24.435	WT901BLE68(801231B9234C)	-2.754	1.462	0.409	-253.296	12.756	154.846	95.88	69.32	17.05	27.636	6.566	-15.190	0.61813	0.55148	0.51965	-0.20889	22.8	13111	100
2025-5-25 10:15:24.480	WT901BLE68(801231B9234C)	-2.091	1.029	0.767	-230.652	-59.753	282.043	90.14	64.08	16.35	27.636	6.566	-15.190	0.61813	0.55148	0.51965	-0.20889	22.8	13111	100
2025-5-25 10:15:24.480	WT901BLE68(801231B9234C)	-2.346	1.223	1.136	-137.878	-49.561	261.902	84.58	57.97	14.14	27.636	6.566	-15.190	0.61813	0.55148	0.51965	-0.20889	22.8	13111	100
2025-5-25 10:15:24.528	WT901BLE68(801231B9234C)	-1.937	1.311	1.103	-149.109	135.803	158.264	84.11	54.12	17.74	27.636	6.566	-15.190	0.69891	0.54245	0.42188	-0.19794	22.8	13111	100
2025-5-25 10:15:24.528	WT901BLE68(801231B9234C)	-1.816	0.549	0.773	-85.388	180.847	141.541	86.29	51.38	23.94	27.636	6.566	-15.190	0.69891	0.54245	0.42188	-0.19794	22.8	13111	100
2025-5-25 10:15:24.549	WT901BLE68(801231B9234C)	-1.741	0.200	0.574	-62.683	190.125	117.249	89.24	49.00	30.19	27.636	6.566	-15.190	0.69891	0.54245	0.42188	-0.19794	22.8	13111	100
2025-5-25 10:15:24.549	WT901BLE68(801231B9234C)	-1.596	-0.006	0.440	-64.575	135.559	115.173	91.03	46.71	35.04	27.636	6.566	-15.190	0.69891	0.54245	0.42188	-0.19794	22.8	13111	100
2025-5-25 10:15:24.593	WT901BLE68(801231B9234C)	-1.324	-0.158	0.384	-64.697	44.678	92.834	90.88	44.77	37.37	27.636	6.566	-15.190	0.69891	0.54245	0.42188	-0.19794	22.8	13111	100
2025-5-25 10:15:24.594	WT901BLE68(801231B9234C)	-0.884	-0.236	0.349	-65.979	-26.794	66.956	89.02	43.47	37.41	27.636	6.566	-15.190	0.69891	0.54245	0.42188	-0.19794	22.8	13111	100
2025-5-25 10:15:24.637	WT901BLE68(801231B9234C)	-0.541	-0.344	0.287	-62.683	-48.523	47.546	86.52	42.64	36.48	27.636	6.566	-15.190	0.69891	0.54245	0.42188	-0.19794	22.8	13111	100
2025-5-25 10:15:24.638	WT901BLE68(801231B9234C)	-0.289	-0.560	0.266	-59.631	-47.852	35.034	83.95	42.04	35.52	27.636	6.566	-15.190	0.69891	0.54245	0.42188	-0.19794	22.8	13111	100
2025-5-25 10:15:24.682	WT901BLE68(801231B9234C)	-0.106	-0.881	0.285	-48.340	-38.940	4.272	81.86	41.72	34.67	27.636	6.566	-15.190	0.69891	0.54245	0.42188	-0.19794	22.8	13111	100
2025-5-25 10:15:24.683	WT901BLE68(801231B9234C)	-0.096	-1.114	0.292	-36.316	-36.072	-39.490	81.05	42.45	32.88	27.636	6.566	-15.190	0.69891	0.54245	0.42188	-0.19794	22.8	13111	100
2025-5-25 10:15:24.731	WT901BLE68(801231B9234C)	-0.113	-1.144	0.211	-16.663	-33.936	-80.505	80.51	44.14	31.08	37.926	-1.176	-12.936	0.69891	0.54245	0.42188	-0.19794	22.8	13111	100
2025-5-25 10:15:24.731	WT901BLE68(801231B9234C)	-0.289	-1.375	0.147	2.686	-36.987	-108.093	80.13	46.47	29.20	37.926	-1.176	-12.936	0.69891	0.54245	0.42188	-0.19794	22.8	13111	100
2025-5-25 10:15:24.751	WT901BLE68(801231B9234C)	-0.693	-0.773	0.117	45.349	-36.560	-142.944	80.39	49.55	27.19	37.926	-1.176	-12.936	0.69891	0.54245	0.42188	-0.19794	22.8	13111	100
2025-5-25 10:15:24.752	WT901BLE68(801231B9234C)	-1.604	-0.589	0.224	74.097	-37.048	-182.007	81.10	53.42	25.04	37.926	-1.176	-12.936	0.69891	0.54245	0.42188	-0.19794	22.8	13111	100
2025-5-25 10:15:24.795	WT901BLE68(801231B9234C)	-2.740	-0.389	0.567	81.482	-46.875	-222.839	81.53	58.09	22.24	37.926	-1.176	-12.936	0.69891	0.54245	0.42188	-0.19794	22.8	13111	100
2025-5-25 10:15:24.795	WT901BLE68(801231B9234C)	-3.106	-0.343	1.127	46.387	-131.958	-253.723	79.43	63.23	17.19	37.926	-1.176	-12.936	0.69891	0.54245	0.42188	-0.19794	22.8	13111	100
2025-5-25 10:15:24.839	WT901BLE68(801231B9234C)	-3.101	0.637	1.079	2.808	-332.275	-184.265	66.44	66.53	1.52	37.926	-1.176	-12.936	0.69891	0.54245	0.42188	-0.19794	22.8	13111	100
2025-5-25 10:15:24.840	WT901BLE68(801231B9234C)	-1.708	0.967	0.881	2.502	-368.286	-239.136	46.91	66.32	-19.72	37.926	-1.176	-12.936	0.69891	0.54245	0.42188	-0.19794	22.8	13111	100
2025-5-25 10:15:24.886	WT901BLE68(801231B9234C)	-1.177	1.431	0.778	62.988	-273.071	-222.717	30.78	64.46	-38.18	37.926	-1.176	-12.936	0.69891	0.54245	0.42188	-0.19794	22.8	13111	100
2025-5-25 10:15:24.886	WT901BLE68(801231B9234C)	-1.125	1.465	0.811	61.035	-42.297	-195.740	22.57	63.98	-48.61	37.926	-1.176	-12.936	0.69891	0.54245	0.42188	-0.19794	22.8	13111	100
2025-5-25 10:15:24.932	WT901BLE68(801231B9234C)	-0.861	1.328	0.583	88.562	126.038	-160.583	18.43	66.52	-54.59	37.926	-1.176	-12.936	0.69412	0.36899	0.41373	-0.45908	22.8	13111	100
2025-5-25 10:15:24.932	WT901BLE68(801231B9234C)	-0.606	1.104	0.298	126.343	220.459	-134.155	17.36	71.05	-57.93	37.926	-1.176	-12.936	0.69412	0.36899	0.41373	-0.45908	22.8	13111	100
2025-5-25 10:15:24.954	WT901BLE68(801231B9234C)	-0.340	0.681	0.126	135.864	232.361	-75.500	19.50	75.96	-58.14	37.926	-1.176	-12.936	0.69412	0.36899	0.41373	-0.45908	22.8	13111	100
2025-5-25 10:15:24.954	WT901BLE68(801231B9234C)	-0.344	0.861	0.001	127.869	220.459	-51.514	26.83	80.52	-53.10	37.926	-1.176	-12.936	0.69412	0.36899	0.41373	-0.45908	22.8	13111	100
2025-5-25 10:15:24.998	WT901BLE68(801231B9234C)	-0.065	0.854	-0.061	99.731	117.371	-37.598	37.66	83.46	-44.03	37.926	-1.176	-12.936	0.69412	0.36899	0.41373	-0.45908	22.8	13111	100
2025-5-25 10:15:24.998	WT901BLE68(801231B9234C)	0.341	0.827	-0.038	72.876	6.897	-24.109	43.53	84.25	-39.46	37.926	-1.176	-12.936	0.69412	0.36899	0.41373	-0.45908	22.8	13111	100
2025-5-25 10:15:25.42	WT901BLE68(801231B9234C)	0.494	0.740	-0.033	54.321	-28.809	-8.301	43.32	83.81	-40.51	37.926	-1.176	-12.936	0.69412	0.36899	0.41373	-0.45908	22.8	13111	100
2025-5-25 10:15:25.42	WT901BLE68(801231B9234C)	0.377	0.643	-0.098	20.813	-10.681	20.264	46.21	83.10	-37.89	37.926	-1.176	-12.936	0.69412	0.36899	0.41373	-0.45908	22.8	13111	100
2025-5-25 10:15:25.88	WT901BLE68(801231B9234C)	0.292	0.750	-0.137	-15.930	20.935	67.871	55.32	82.02	-28.31	37.926	-1.176	-12.936	0.69412	0.36899	0.41373	-0.45908	22.8	13111	100
2025-5-25 10:15:25.88	WT901BLE68(801231B9234C)	-0.148	0.816	-0.077	-59.753	36.987	108.337	66.45	80.14	-15.86	37.926	-1.176	-12.936	0.69412	0.36899	0.41373	-0.45908	22.8	13111	100
2025-5-25 10:15:25.133	WT901BLE68(801231B9234C)	-0.993	0.826	0.102	-119.934	34.607	133.057	73.84	77.38	-6.08	23.324	4.606	-28.616	0.69412	0.36899	0.41373	-0.45908	22.8	13111	100
2025-5-25 10:15:25.133	WT901BLE68(801231B9234C)	-2.140	0.801	0.345	-175.598	23.926	155.945	76.71	74.03	0.37	23.324	4.606	-28.616	0.69412	0.36899	0.41373	-0.45908	22.8	13111	100
2025-5-25 10:15:25.157	WT901BLE68(801231B9234C)	-2.221	0.749	0.924	-199.219	26.367	207.336	77.04	70.09	5.22	23.324	4.606	-28.616	0.69412	0.36899	0.41373	-0.45908	22.8	13111	100
2025-5-25 10:15:25.157	WT901BLE68(801231B9234C)	-2.174	0.592	1.217	-158.203	-18.250	214.050	75.99	65.41	8.12	23.324	4.606	-28.616	0.69412	0.36899	0.41373	-0.45908	22.8	13111	100
2025-5-25 10:15:25.201	WT901BLE68(801231B9234C)	-1.765	0.935	1.183	-138.977	60.974	150.818	75.20	61.98	10.82	23.324	4.606	-28.616	0.69412	0.36899	0.41373	-0.45908	22.8	13111	100
2025-5-25 10:15:25.201	WT901BLE68(801231B9234C)	-1.583	0.444	0.930	-111.511	160.889	137.085	77.83	59.71	17.12	23.324	4.606	-28.616	0.69412	0.36899	0.41373	-0.45908	22.8	13111	100
2025-5-25 10:15:25.244	WT901BLE68(801231B9234C)	-1.647	0.129	0.766	-71.045	227.173	123.169	82.92	57.81	25.33	23.324	4.606	-28.616	0.69412	0.36899	0.41373	-0.45908	22.8	13111	100
2025-5-25 10:15:25.244	WT901BLE68(801231B9234C)	-1.545	-0.139	0.723	-62.378	214.050	106.445	88.13	55.91	33.51	23.324	4.606	-28.616	0.69412	0.36899	0.41373	-0.45908	22.8	13111	100
2025-5-25 10:15:25.291	WT901BLE68(801231B9234C)	-1.247	-0.151	0.568	-52.795	111.084	75.867	90.82	54.35	38.50	23.324	4.606	-28.616	0.69412	0.36899	0.41373	-0.45908	22.8	13111	100
2025-5-25 10:15:25.292	WT901BLE68(801231B9234C)	-0.832	-0.268	0.445	-42.053	4.883	58.167	90.43	53.31	39.48	23.324	4.606	-28.616	0.69412	0.36899	0.41373	-0.45908	22.8	13111	100
2025-5-25 10:15:25.329	WT901BLE68(801231B9234C)	-0.460	-0.378	0.360	-29.907	-33.813	45.715	88.62	52.61	38.35	23.324	4.606	-28.616	0.70758	0.49225	0.50052	-0.08008	22.8	13111	100
2025-5-25 10:15:25.330	WT901BLE68(801231B9234C)	-0.198	-0.516	0.286	-20.142	-32.227	29.297	86.83	52.25	36.86	23.324	4.606	-28.616	0.70758	0.49225	0.50052	-0.08008	22.8	13111	100
2025-5-25 10:15:25.359	WT901BLE68(801231B9234C)	-0.071	-0.760	0.226	-9.399	-18.616	-4.700	85.85	52.52	35.45	23.324	4.606	-28.616	0.70758	0.49225	0.50052	-0.08008	22.8	13111	100
2025-5-25 10:15:25.359	WT901BLE68(801231B9234C)	-0.071	-0.993	0.202	1.404	-15.259	-46.631	85.79	53.65	34.16	23.324	4.606	-28.616	0.70758	0.49225	0.50052	-0.08008	22.8	13111	100
2025-5-25 10:15:25.403	WT901BLE68(801231B9234C)	-0.088	-0.998	0.170	20.203	-22.888	-86.060	86.07	55.65	32.82	23.324	4.606	-28.616	0.70758	0.49225	0.50052	-0.08008	22.8	13111	100
2025-5-25 10:15:25.403	WT901BLE68(801231B9234C)	-0.195	-0.964	0.129	24.414	-33.447	-111.450	86.40	58.28	31.26	23.324	4.606	-28.616	0.70758	0.49225	0.50052	-0.08008	22.8	13111	100
2025-5-25 10:15:25.450	WT901BLE68(801231B9234C)	-0.532	-0.633	0.136	48.523	-37.170	-140.503	86.86	61.48	29.47	23.324	4.606	-28.616	0.70758	0.49225	0.50052	-0.08008	22.8	13111	100
2025-5-25 10:15:25.450	WT901BLE68(801231B9234C)	-1.087	-0.515	0.213	57.800	-31.860	-184.753	87.41	65.49	27.66	23.324	4.606	-28.616	0.70758	0.49225	0.50052	-0.08008	22.8	13111	100
2025-5-25 10:15:25.493	WT901BLE68(801231B9234C)	-1.740	-0.474	0.369	64.758	-3.113	-205.322	88.80	70.15	26.65	23.324	4.606	-28.616	0.70758	0.49225	0.50052	-0.08008	22.8	13111	100
2025-5-25 10:15:25.493	WT901BLE68(801231B9234C)	-2.360	-0.539	0.647	70.435	11.353	-194.946	92.29	74.72	27.80	23.324	4.606	-28.616	0.70758	0.49225	0.50052	-0.08008	22.8	13111	100
2025-5-25 10:15:25.530	WT901BLE68(801231B9234C)	-3.193	-0.201	0.802	56.824	-6.958	-183.838	95.81	78.93	29.00	36.358	4.018	-16.954	0.70758	0.49225	0.50052	-0.08008	22.8	13111	100
2025-5-25 10:15:25.530	WT901BLE68(801231B9234C)	-2.855	0.073	0.630	50.781	-80.505	-191.711	93.91	83.19	25.17	36.358	4.018	-16.954	0.70758	0.49225	0.50052	-0.08008	22.8	13111	100
2025-5-25 10:15:25.562	WT901BLE68(801231B9234C)	-2.183	0.547	0.571	51.941	-155.823	-201.355	56.15	86.77	-14.13	36.358	4.018	-16.954	0.70758	0.49225	0.50052	-0.08008	22.8	13111	100
2025-5-25 10:15:25.562	WT901BLE68(801231B9234C)	-1.583	0.710	0.459	69.092	-140.442	-203.186	-9.72	85.16	-81.07	36.358	4.018	-16.954	0.70758	0.49225	0.50052	-0.08008	22.8	13111	100
2025-5-25 10:15:25.606	WT901BLE68(801231B9234C)	-1.173	0.845	0.340	87.952	-35.339	-180.786	-32.51	82.27	-105.24	36.358	4.018	-16.954	0.70758	0.49225	0.50052	-0.08008	22.8	13111	100
2025-5-25 10:15:25.606	WT901BLE68(801231B9234C)	-0.933	0.949	0.186	105.530	52.856	-139.038	-46.66	80.73	-121.08	36.358	4.018	-16.954	0.70758	0.49225	0.50052	-0.08008	22.8	13111	100
2025-5-25 10:15:25.654	WT901BLE68(801231B9234C)	-0.682	1.005	0.059	114.746	76.538	-98.022	-57.90	80.04	-134.26	36.358	4.018	-16.954	0.70758	0.49225	0.50052	-0.08008	22.8	13111	100
2025-5-25 10:15:25.654	WT901BLE68(801231B9234C)	-0.323	0.925	0.039	114.929	46.814	-63.416	-64.41	79.62	-142.71	36.358	4.018	-16.954	0.70758	0.49225	0.50052	-0.08008	22.8	13111	100
2025-5-25 10:15:25.695	WT901BLE68(801231B9234C)	0.023	0.866	0.014	105.225	7.446	-39.734	-65.75	79.30	-145.81	36.358	4.018	-16.954	0.70758	0.49225	0.50052	-0.08008	22.8	13111	100
2025-5-25 10:15:25.695	WT901BLE68(801231B9234C)	0.274	0.823	-0.037	99.670	-6.409	-20.508	-64.12	79.21	-145.67	36.358	4.018	-16.954	0.70758	0.49225	0.50052	-0.08008	22.8	13111	100
2025-5-25 10:15:25.731	WT901BLE68(801231B9234C)	0.361	0.726	-0.080	74.036	-9.460	-1.831	-61.56	79.46	-144.29	36.358	4.018	-16.954	0.51114	0.40259	0.53937	-0.53445	22.8	13111	100
2025-5-25 10:15:25.732	WT901BLE68(801231B9234C)	0.251	0.554	-0.095	44.617	12.024	34.973	-58.93	80.44	-142.29	36.358	4.018	-16.954	0.51114	0.40259	0.53937	-0.53445	22.8	13111	100
2025-5-25 10:15:25.763	WT901BLE68(801231B9234C)	0.104	0.467	-0.116	10.193	28.809	79.895	-55.70	82.41	-139.04	36.358	4.018	-16.954	0.51114	0.40259	0.53937	-0.53445	22.8	13111	100
2025-5-25 10:15:25.763	WT901BLE68(801231B9234C)	-0.127	0.559	-0.035	-27.466	18.738	120.850	-45.46	85.07	-128.07	36.358	4.018	-16.954	0.51114	0.40259	0.53937	-0.53445	22.8	13111	100
2025-5-25 10:15:25.808	WT901BLE68(801231B9234C)	-0.662	0.652	0.212	-79.651	-1.282	146.301	-8.59	87.04	-89.54	36.358	4.018	-16.954	0.51114	0.40259	0.53937	-0.53445	22.8	13111	100
2025-5-25 10:15:25.808	WT901BLE68(801231B9234C)	-1.682	0.618	0.602	-144.287	-7.202	159.973	41.39	85.83	-36.64	36.358	4.018	-16.954	0.51114	0.40259	0.53937	-0.53445	22.8	13111	100
2025-5-25 10:15:25.852	WT901BLE68(801231B9234C)	-2.032	0.574	0.856	-183.716	26.672	194.763	63.12	82.63	-10.89	36.358	4.018	-16.954	0.51114	0.40259	0.53937	-0.53445	22.8	13111	100
2025-5-25 10:15:25.852	WT901BLE68(801231B9234C)	-2.480	0.499	0.940	-182.983	-7.141	251.099	70.99	77.96	1.26	36.358	4.018	-16.954	0.51114	0.40259	0.53937	-0.53445	22.8	13111	100
2025-5-25 10:15:25.898	WT901BLE68(801231B9234C)	-2.329	0.738	1.092	-183.655	-3.479	214.050	71.43	73.14	5.92	36.358	4.018	-16.954	0.51114	0.40259	0.53937	-0.53445	22.8	13111	100
2025-5-25 10:15:25.898	WT901BLE68(801231B9234C)	-1.742	0.555	1.039	-155.579	48.523	183.044	72.67	69.50	11.20	36.358	4.018	-16.954	0.51114	0.40259	0.53937	-0.53445	22.8	13111	100
2025-5-25 10:15:25.932	WT901BLE68(801231B9234C)	-1.553	0.131	0.827	-109.436	102.173	159.485	75.48	66.57	17.32	29.106	10.976	-26.754	0.51114	0.40259	0.53937	-0.53445	22.8	13111	100
2025-5-25 10:15:25.932	WT901BLE68(801231B9234C)	-1.406	-0.152	0.692	-87.952	158.386	141.846	80.27	64.24	25.05	29.106	10.976	-26.754	0.51114	0.40259	0.53937	-0.53445	22.8	13111	100
2025-5-25 10:15:25.967	WT901BLE68(801231B9234C)	-1.312	-0.275	0.524	-76.355	133.057	124.207	84.35	62.08	31.79	29.106	10.976	-26.754	0.51114	0.40259	0.53937	-0.53445	22.8	13111	100
2025-5-25 10:15:25.967	WT901BLE68(801231B9234C)	-1.194	-0.342	0.422	-73.853	59.326	102.539	85.73	60.18	35.41	29.106	10.976	-26.754	0.51114	0.40259	0.53937	-0.53445	22.8	13111	100
2025-5-25 10:15:26.10	WT901BLE68(801231B9234C)	-0.861	-0.429	0.341	-71.167	-24.780	84.167	84.13	58.63	35.55	29.106	10.976	-26.754	0.51114	0.40259	0.53937	-0.53445	22.8	13111	100
2025-5-25 10:15:26.10	WT901BLE68(801231B9234C)	-0.486	-0.479	0.251	-60.547	-67.383	71.838	80.88	57.30	33.45	29.106	10.976	-26.754	0.51114	0.40259	0.53937	-0.53445	22.8	13111	100
2025-5-25 10:15:26.55	WT901BLE68(801231B9234C)	-0.215	-0.592	0.205	-53.955	-62.317	56.458	77.71	56.22	31.05	29.106	10.976	-26.754	0.51114	0.40259	0.53937	-0.53445	22.8	13111	100
2025-5-25 10:15:26.55	WT901BLE68(801231B9234C)	-0.036	-0.786	0.187	-46.997	-44.189	26.001	75.32	55.73	28.98	29.106	10.976	-26.754	0.51114	0.40259	0.53937	-0.53445	22.8	13111	100
2025-5-25 10:15:26.80	WT901BLE68(801231B9234C)	0.005	-0.954	0.143	-37.598	-26.917	-20.081	73.81	56.17	27.14	29.106	10.976	-26.754	0.51114	0.40259	0.53937	-0.53445	22.8	13111	100
2025-5-25 10:15:26.80	WT901BLE68(801231B9234C)	-0.043	-1.188	0.084	-28.320	-15.808	-64.575	72.73	57.58	25.46	29.106	10.976	-26.754	0.51114	0.40259	0.53937	-0.53445	22.8	13111	100
2025-5-25 10:15:26.128	WT901BLE68(801231B9234C)	-0.209	-0.999	0.064	0.183	-12.329	-96.497	71.95	59.84	23.61	29.106	10.976	-26.754	0.74167	0.41946	0.49988	-0.15491	22.8	13111	100
2025-5-25 10:15:26.128	WT901BLE68(801231B9234C)	-0.529	-0.726	0.090	31.860	-1.099	-126.892	71.88	62.73	21.86	29.106	10.976	-26.754	0.74167	0.41946	0.49988	-0.15491	22.8	13111	100
2025-5-25 10:15:26.170	WT901BLE68(801231B9234C)	-1.070	-0.583	0.194	55.054	-7.263	-155.334	71.85	66.22	19.64	29.106	10.976	-26.754	0.74167	0.41946	0.49988	-0.15491	22.8	13111	100
2025-5-25 10:15:26.170	WT901BLE68(801231B9234C)	-2.040	-0.573	0.454	70.618	-13.916	-177.063	70.91	70.09	16.13	29.106	10.976	-26.754	0.74167	0.41946	0.49988	-0.15491	22.8	13111	100
2025-5-25 10:15:26.233	WT901BLE68(801231B9234C)	-2.386	-0.554	0.831	62.134	-30.396	-202.332	67.87	74.27	10.48	29.106	10.976	-26.754	0.74167	0.41946	0.49988	-0.15491	22.8	13111	100
2025-5-25 10:15:26.233	WT901BLE68(801231B9234C)	-3.170	-0.436	0.921	41.931	-143.066	-189.636	54.71	77.40	-4.90	29.106	10.976	-26.754	0.74167	0.41946	0.49988	-0.15491	22.8	13111	100
2025-5-25 10:15:26.257	WT901BLE68(801231B9234C)	-2.830	0.112	0.809	30.212	-195.068	-205.017	31.54	77.72	-29.86	29.106	10.976	-26.754	0.74167	0.41946	0.49988	-0.15491	22.8	13111	100
2025-5-25 10:15:26.257	WT901BLE68(801231B9234C)	-1.470	0.415	0.737	44.678	-269.531	-218.628	8.47	74.71	-54.35	29.106	10.976	-26.754	0.74167	0.41946	0.49988	-0.15491	22.8	13111	100
2025-5-25 10:15:26.283	WT901BLE68(801231B9234C)	-1.018	0.695	0.773	100.281	-170.044	-206.421	-3.71	70.31	-68.76	29.106	10.976	-26.754	0.74167	0.41946	0.49988	-0.15491	22.8	13111	100
2025-5-25 10:15:26.283	WT901BLE68(801231B9234C)	-1.057	0.868	0.839	119.141	54.504	-188.782	-11.46	69.29	-79.23	29.106	10.976	-26.754	0.74167	0.41946	0.49988	-0.15491	22.8	13111	100
2025-5-25 10:15:26.332	WT901BLE68(801231B9234C)	-0.895	0.860	0.508	151.062	209.290	-160.400	-19.61	71.50	-90.59	19.698	17.934	-29.988	0.74167	0.41946	0.49988	-0.15491	22.8	13111	100
2025-5-25 10:15:26.332	WT901BLE68(801231B9234C)	-0.574	0.844	0.279	177.795	246.948	-122.009	-29.86	74.84	-104.57	19.698	17.934	-29.988	0.74167	0.41946	0.49988	-0.15491	22.8	13111	100
2025-5-25 10:15:26.372	WT901BLE68(801231B9234C)	-0.428	0.777	0.199	181.824	237.854	-80.750	-42.45	77.81	-120.95	19.698	17.934	-29.988	0.74167	0.41946	0.49988	-0.15491	22.8	13111	100
2025-5-25 10:15:26.372	WT901BLE68(801231B9234C)	-0.467	0.820	0.146	151.062	189.575	-45.471	-57.31	80.00	-139.11	19.698	17.934	-29.988	0.74167	0.41946	0.49988	-0.15491	22.8	13111	100
2025-5-25 10:15:26.431	WT901BLE68(801231B9234C)	-0.150	0.740	0.134	113.892	63.660	-18.250	-65.86	80.95	-149.86	19.698	17.934	-29.988	0.74167	0.41946	0.49988	-0.15491	22.8	13111	100
2025-5-25 10:15:26.431	WT901BLE68(801231B9234C)	0.283	0.694	0.104	100.647	-35.645	1.221	-62.63	81.24	-148.24	19.698	17.934	-29.988	0.74167	0.41946	0.49988	-0.15491	22.8	13111	100
2025-5-25 10:15:26.460	WT901BLE68(801231B9234C)	0.515	0.654	0.021	62.195	-69.946	25.024	-51.95	81.28	-138.51	19.698	17.934	-29.988	0.74167	0.41946	0.49988	-0.15491	22.8	13111	100
2025-5-25 10:15:26.460	WT901BLE68(801231B9234C)	0.562	0.509	-0.059	15.259	-35.950	52.185	-40.84	81.65	-127.40	19.698	17.934	-29.988	0.74167	0.41946	0.49988	-0.15491	22.8	13111	100
2025-5-25 10:15:26.485	WT901BLE68(801231B9234C)	0.401	0.431	-0.134	-20.203	14.648	89.294	-28.85	82.96	-114.65	19.698	17.934	-29.988	0.74167	0.41946	0.49988	-0.15491	22.8	13111	100
2025-5-25 10:15:26.485	WT901BLE68(801231B9234C)	-0.056	0.563	-0.060	-61.646	44.556	127.930	-6.99	84.78	-91.35	19.698	17.934	-29.988	0.74167	0.41946	0.49988	-0.15491	22.8	13111	100
2025-5-25 10:15:26.533	WT901BLE68(801231B9234C)	-0.965	0.680	0.213	-123.413	42.603	164.246	32.24	84.98	-49.58	19.698	17.934	-29.988	0.57889	0.46298	0.49786	-0.45007	22.8	13111	100
2025-5-25 10:15:26.533	WT901BLE68(801231B9234C)	-2.268	0.930	0.460	-195.801	27.344	183.838	59.01	82.32	-18.91	19.698	17.934	-29.988	0.57889	0.46298	0.49786	-0.45007	22.8	13111	100
2025-5-25 10:15:26.572	WT901BLE68(801231B9234C)	-2.179	0.901	0.546	-218.262	-9.949	247.253	67.72	77.99	-5.23	19.698	17.934	-29.988	0.57889	0.46298	0.49786	-0.45007	22.8	13111	100
2025-5-25 10:15:26.572	WT901BLE68(801231B9234C)	-2.216	0.744	1.005	-157.227	-89.539	302.002	67.56	71.75	-1.33	19.698	17.934	-29.988	0.57889	0.46298	0.49786	-0.45007	22.8	13111	100
2025-5-25 10:15:26.628	WT901BLE68(801231B9234C)	-2.208	1.115	1.265	-137.878	56.458	227.966	68.93	66.52	3.55	19.698	17.934	-29.988	0.57889	0.46298	0.49786	-0.45007	22.8	13111	100
2025-5-25 10:15:26.628	WT901BLE68(801231B9234C)	-2.193	0.705	0.935	-99.121	212.952	199.829	75.11	63.41	13.41	19.698	17.934	-29.988	0.57889	0.46298	0.49786	-0.45007	22.8	13111	100
2025-5-25 10:15:26.663	WT901BLE68(801231B9234C)	-2.471	0.200	0.727	-76.233	251.892	170.227	83.39	60.64	24.97	19.698	17.934	-29.988	0.57889	0.46298	0.49786	-0.45007	22.8	13111	100
2025-5-25 10:15:26.664	WT901BLE68(801231B9234C)	-1.709	-0.336	0.740	-57.129	113.403	137.512	87.71	57.95	31.89	19.698	17.934	-29.988	0.57889	0.46298	0.49786	-0.45007	22.8	13111	100
2025-5-25 10:15:26.688	WT901BLE68(801231B9234C)	-0.956	-0.258	0.641	-22.400	-54.077	103.210	86.75	55.89	31.81	19.698	17.934	-29.988	0.57889	0.46298	0.49786	-0.45007	22.8	13111	100
2025-5-25 10:15:26.688	WT901BLE68(801231B9234C)	-0.596	-0.267	0.494	-21.973	-107.666	86.304	83.43	54.14	28.46	19.698	17.934	-29.988	0.57889	0.46298	0.49786	-0.45007	22.8	13111	100
2025-5-25 10:15:26.733	WT901BLE68(801231B9234C)	-0.387	-0.419	0.367	-29.541	-86.487	64.697	80.18	52.76	25.25	34.398	1.862	-22.736	0.57889	0.46298	0.49786	-0.45007	22.8	13111	100
2025-5-25 10:15:26.733	WT901BLE68(801231B9234C)	-0.270	-0.632	0.296	-34.119	-49.805	48.401	77.85	51.83	23.09	34.398	1.862	-22.736	0.57889	0.46298	0.49786	-0.45007	22.8	13111	100
2025-5-25 10:15:26.777	WT901BLE68(801231B9234C)	-0.191	-0.873	0.344	-38.391	-30.579	23.682	76.29	51.52	21.56	34.398	1.862	-22.736	0.57889	0.46298	0.49786	-0.45007	22.8	13111	100
2025-5-25 10:15:26.777	WT901BLE68(801231B9234C)	0.019	-0.989	0.371	-35.156	-36.194	-8.606	74.93	51.88	19.79	34.398	1.862	-22.736	0.57889	0.46298	0.49786	-0.45007	22.8	13111	100
2025-5-25 10:15:26.832	WT901BLE68(801231B9234C)	0.130	-0.987	0.218	-34.363	-51.086	-41.748	73.30	52.85	17.42	34.398	1.862	-22.736	0.57889	0.46298	0.49786	-0.45007	22.8	13111	100
2025-5-25 10:15:26.833	WT901BLE68(801231B9234C)	-0.086	-1.008	0.127	-28.503	-52.673	-78.430	71.20	54.52	14.43	34.398	1.862	-22.736	0.57889	0.46298	0.49786	-0.45007	22.8	13111	100
2025-5-25 10:15:26.865	WT901BLE68(801231B9234C)	-0.498	-0.866	0.188	-6.470	-18.921	-113.586	69.60	57.00	11.70	34.398	1.862	-22.736	0.57889	0.46298	0.49786	-0.45007	22.8	13111	100
2025-5-25 10:15:26.865	WT901BLE68(801231B9234C)	-1.001	-0.708	0.276	16.418	-0.488	-156.067	68.62	60.41	9.28	34.398	1.862	-22.736	0.57889	0.46298	0.49786	-0.45007	22.8	13111	100
2025-5-25 10:15:26.889	WT901BLE68(801231B9234C)	-1.918	-0.622	0.462	36.682	-24.475	-200.623	66.62	64.55	5.34	34.398	1.862	-22.736	0.57889	0.46298	0.49786	-0.45007	22.8	13111	100
2025-5-25 10:15:26.889	WT901BLE68(801231B9234C)	-2.465	-0.681	0.940	42.175	-46.387	-238.464	61.72	69.01	-1.88	34.398	1.862	-22.736	0.57889	0.46298	0.49786	-0.45007	22.8	13111	100
2025-5-25 10:15:26.936	WT901BLE68(801231B9234C)	-3.100	-0.423	1.075	15.503	-174.194	-230.957	48.89	72.31	-16.83	34.398	1.862	-22.736	0.69278	0.39813	0.47125	-0.37326	22.8	13111	100
2025-5-25 10:15:26.936	WT901BLE68(801231B9234C)	-2.917	-0.062	1.257	-26.733	-268.005	-225.647	29.06	71.65	-38.03	34.398	1.862	-22.736	0.69278	0.39813	0.47125	-0.37326	22.8	13111	100
2025-5-25 10:15:26.978	WT901BLE68(801231B9234C)	-1.471	0.629	1.138	-22.278	-323.669	-229.492	10.33	67.60	-57.60	34.398	1.862	-22.736	0.69278	0.39813	0.47125	-0.37326	22.8	13111	100
2025-5-25 10:15:26.978	WT901BLE68(801231B9234C)	-1.117	1.017	1.180	24.475	-198.059	-204.773	0.32	62.80	-68.83	34.398	1.862	-22.736	0.69278	0.39813	0.47125	-0.37326	22.8	13111	100
2025-5-25 10:15:27.30	WT901BLE68(801231B9234C)	-1.013	1.229	1.158	62.195	20.203	-182.373	-5.64	61.47	-76.52	34.398	1.862	-22.736	0.69278	0.39813	0.47125	-0.37326	22.8	13111	100
2025-5-25 10:15:27.30	WT901BLE68(801231B9234C)	-0.846	1.180	0.726	112.244	204.590	-154.114	-10.42	63.86	-83.79	34.398	1.862	-22.736	0.69278	0.39813	0.47125	-0.37326	22.8	13111	100
2025-5-25 10:15:27.46	WT901BLE68(801231B9234C)	-0.560	1.027	0.371	143.982	285.706	-127.380	-15.61	68.48	-92.16	34.398	1.862	-22.736	0.69278	0.39813	0.47125	-0.37326	22.8	13111	100
2025-5-25 10:15:27.47	WT901BLE68(801231B9234C)	-0.427	0.857	0.182	160.645	293.945	-86.853	-22.25	73.48	-102.22	34.398	1.862	-22.736	0.69278	0.39813	0.47125	-0.37326	22.8	13111	100
2025-5-25 10:15:27.92	WT901BLE68(801231B9234C)	-0.504	0.839	0.085	137.939	233.765	-51.331	-30.88	77.83	-113.90	34.398	1.862	-22.736	0.69278	0.39813	0.47125	-0.37326	22.8	13111	100
2025-5-25 10:15:27.92	WT901BLE68(801231B9234C)	-0.199	0.761	0.078	104.431	99.365	-21.484	-37.26	80.25	-122.33	34.398	1.862	-22.736	0.69278	0.39813	0.47125	-0.37326	22.8	13111	100
2025-5-25 10:15:27.135	WT901BLE68(801231B9234C)	0.250	0.729	0.039	96.252	-30.212	6.775	-34.23	80.71	-120.84	21.462	10.976	-30.870	0.69278	0.39813	0.47125	-0.37326	22.8	13111	100
2025-5-25 10:15:27.135	WT901BLE68(801231B9234C)	0.423	0.615	-0.004	64.636	-79.712	31.677	-24.39	80.04	-112.00	21.462	10.976	-30.870	0.69278	0.39813	0.47125	-0.37326	22.8	13111	100
2025-5-25 10:15:27.182	WT901BLE68(801231B9234C)	0.409	0.435	-0.047	8.789	-58.960	65.918	-13.55	79.29	-101.09	21.462	10.976	-30.870	0.69278	0.39813	0.47125	-0.37326	22.8	13111	100
2025-5-25 10:15:27.182	WT901BLE68(801231B9234C)	0.281	0.348	-0.126	-21.851	-11.536	106.262	-1.33	79.15	-87.93	21.462	10.976	-30.870	0.69278	0.39813	0.47125	-0.37326	22.8	13111	100
2025-5-25 10:15:27.231	WT901BLE68(801231B9234C)	-0.083	0.561	-0.120	-56.091	16.663	148.376	14.56	79.07	-70.50	21.462	10.976	-30.870	0.69278	0.39813	0.47125	-0.37326	22.8	13111	100
2025-5-25 10:15:27.231	WT901BLE68(801231B9234C)	-0.814	0.703	0.064	-109.985	19.714	185.242	32.01	77.92	-50.54	21.462	10.976	-30.870	0.69278	0.39813	0.47125	-0.37326	22.8	13111	100
2025-5-25 10:15:27.250	WT901BLE68(801231B9234C)	-2.305	0.917	0.447	-175.232	5.310	199.402	44.70	75.28	-34.15	21.462	10.976	-30.870	0.69278	0.39813	0.47125	-0.37326	22.8	13111	100
2025-5-25 10:15:27.250	WT901BLE68(801231B9234C)	-2.347	1.074	0.808	-220.886	-2.686	212.952	50.72	71.98	-23.12	21.462	10.976	-30.870	0.69278	0.39813	0.47125	-0.37326	22.8	13111	100
2025-5-25 10:15:27.295	WT901BLE68(801231B9234C)	-2.093	0.730	1.183	-143.127	-114.685	274.902	53.06	66.68	-16.64	21.462	10.976	-30.870	0.69278	0.39813	0.47125	-0.37326	22.8	13111	100
2025-5-25 10:15:27.295	WT901BLE68(801231B9234C)	-1.768	0.861	1.487	-108.032	-25.269	205.505	53.91	61.74	-12.77	21.462	10.976	-30.870	0.69278	0.39813	0.47125	-0.37326	22.8	13111	100
2025-5-25 10:15:27.337	WT901BLE68(801231B9234C)	-1.406	0.570	1.210	-61.462	123.901	174.988	57.61	59.40	-6.30	21.462	10.976	-30.870	0.74539	0.45752	0.41513	-0.25024	22.8	13111	100
2025-5-25 10:15:27.337	WT901BLE68(801231B9234C)	-1.548	0.093	0.936	-12.085	246.826	153.870	65.12	58.36	3.42	21.462	10.976	-30.870	0.74539	0.45752	0.41513	-0.25024	22.8	13111	100
2025-5-25 10:15:27.383	WT901BLE68(801231B9234C)	-1.551	-0.285	0.724	2.869	277.283	134.460	74.27	57.58	14.61	21.462	10.976	-30.870	0.74539	0.45752	0.41513	-0.25024	22.8	13111	100
2025-5-25 10:15:27.383	WT901BLE68(801231B9234C)	-1.374	-0.451	0.601	10.193	190.247	108.521	81.35	56.28	23.18	21.462	10.976	-30.870	0.74539	0.45752	0.41513	-0.25024	22.8	13111	100
2025-5-25 10:15:27.433	WT901BLE68(801231B9234C)	-1.050	-0.548	0.547	10.193	64.331	67.566	84.47	55.12	26.90	21.462	10.976	-30.870	0.74539	0.45752	0.41513	-0.25024	22.8	13111	100
2025-5-25 10:15:27.433	WT901BLE68(801231B9234C)	-0.637	-0.587	0.513	12.024	-23.804	38.330	84.45	54.54	26.62	21.462	10.976	-30.870	0.74539	0.45752	0.41513	-0.25024	22.8	13111	100
2025-5-25 10:15:27.452	WT901BLE68(801231B9234C)	-0.335	-0.615	0.469	7.141	-57.129	17.456	83.07	54.42	24.38	21.462	10.976	-30.870	0.74539	0.45752	0.41513	-0.25024	22.8	13111	100
2025-5-25 10:15:27.452	WT901BLE68(801231B9234C)	-0.095	-0.739	0.443	-0.549	-54.504	-5.310	81.54	54.76	21.65	21.462	10.976	-30.870	0.74539	0.45752	0.41513	-0.25024	22.8	13111	100
2025-5-25 10:15:27.496	WT901BLE68(801231B9234C)	0.074	-0.878	0.363	-4.028	-47.607	-34.851	80.23	55.67	19.05	21.462	10.976	-30.870	0.74539	0.45752	0.41513	-0.25024	22.8	13111	100
2025-5-25 10:15:27.496	WT901BLE68(801231B9234C)	0.019	-0.895	0.218	-4.333	-46.082	-67.078	78.89	57.25	16.38	21.462	10.976	-30.870	0.74539	0.45752	0.41513	-0.25024	22.8	13111	100
2025-5-25 10:15:27.563	WT901BLE68(801231B9234C)	-0.287	-0.818	0.201	2.502	-27.710	-96.252	77.71	59.52	13.84	33.418	0.490	-24.108	0.74539	0.45752	0.41513	-0.25024	22.8	13111	100
2025-5-25 10:15:27.564	WT901BLE68(801231B9234C)	-0.624	-0.702	0.296	16.724	-6.287	-119.202	77.26	62.40	11.95	33.418	0.490	-24.108	0.74539	0.45752	0.41513	-0.25024	22.8	13111	100
2025-5-25 10:15:27.588	WT901BLE68(801231B9234C)	-1.080	-0.619	0.369	29.480	-15.198	-150.452	76.75	65.83	9.77	33.418	0.490	-24.108	0.74539	0.45752	0.41513	-0.25024	22.8	13111	100
2025-5-25 10:15:27.588	WT901BLE68(801231B9234C)	-1.911	-0.475	0.438	33.997	-58.411	-189.941	74.00	69.78	5.08	33.418	0.490	-24.108	0.74539	0.45752	0.41513	-0.25024	22.8	13111	100
2025-5-25 10:15:27.632	WT901BLE68(801231B9234C)	-2.445	-0.424	0.879	18.860	-94.604	-219.238	66.04	73.85	-4.81	33.418	0.490	-24.108	0.74539	0.45752	0.41513	-0.25024	22.8	13111	100
2025-5-25 10:15:27.632	WT901BLE68(801231B9234C)	-2.684	-0.128	1.062	-11.108	-228.760	-207.581	46.33	76.11	-25.99	33.418	0.490	-24.108	0.74539	0.45752	0.41513	-0.25024	22.8	13111	100
2025-5-25 10:15:27.654	WT901BLE68(801231B9234C)	-2.476	0.178	1.107	-45.837	-305.481	-213.684	20.74	73.77	-52.29	33.418	0.490	-24.108	0.74539	0.45752	0.41513	-0.25024	22.8	13111	100
2025-5-25 10:15:27.654	WT901BLE68(801231B9234C)	-1.436	0.438	1.036	-54.260	-325.378	-217.590	2.96	68.40	-70.07	33.418	0.490	-24.108	0.74539	0.45752	0.41513	-0.25024	22.8	13111	100
2025-5-25 10:15:27.699	WT901BLE68(801231B9234C)	-1.013	0.741	0.915	14.099	-207.642	-181.213	-5.62	62.86	-79.11	33.418	0.490	-24.108	0.74539	0.45752	0.41513	-0.25024	22.8	13111	100
2025-5-25 10:15:27.699	WT901BLE68(801231B9234C)	-1.054	0.941	0.851	54.199	25.818	-162.659	-10.60	61.25	-85.49	33.418	0.490	-24.108	0.74539	0.45752	0.41513	-0.25024	22.8	13111	100
2025-5-25 10:15:27.742	WT901BLE68(801231B9234C)	-1.114	0.829	0.519	111.877	212.280	-151.306	-15.36	63.53	-92.66	33.418	0.490	-24.108	0.60321	0.32040	0.45355	-0.57239	22.8	13111	100
2025-5-25 10:15:27.742	WT901BLE68(801231B9234C)	-0.635	3.159	0.275	171.997	267.639	-101.318	-20.74	67.75	-101.56	33.418	0.490	-24.108	0.60321	0.32040	0.45355	-0.57239	22.8	13111	100
2025-5-25 10:15:27.790	WT901BLE68(801231B9234C)	-0.519	1.056	0.117	184.875	246.887	-81.421	-26.98	71.81	-111.61	33.418	0.490	-24.108	0.60321	0.32040	0.45355	-0.57239	22.8	13111	100
2025-5-25 10:15:27.790	WT901BLE68(801231B9234C)	-0.443	0.845	0.093	174.377	181.519	-53.894	-32.62	75.00	-120.87	33.418	0.490	-24.108	0.60321	0.32040	0.45355	-0.57239	22.8	13111	100
2025-5-25 10:15:27.831	WT901BLE68(801231B9234C)	-0.089	0.848	0.051	146.973	65.063	-28.809	-35.22	76.73	-126.38	33.418	0.490	-24.108	0.60321	0.32040	0.45355	-0.57239	22.8	13111	100
2025-5-25 10:15:27.831	WT901BLE68(801231B9234C)	0.296	0.795	0.015	130.554	-26.489	-0.305	-31.84	76.95	-125.22	33.418	0.490	-24.108	0.60321	0.32040	0.45355	-0.57239	22.8	13111	100
2025-5-25 10:15:27.855	WT901BLE68(801231B9234C)	0.480	0.772	-0.030	89.783	-49.683	23.071	-25.37	76.61	-120.27	33.418	0.490	-24.108	0.60321	0.32040	0.45355	-0.57239	22.8	13111	100
2025-5-25 10:15:27.855	WT901BLE68(801231B9234C)	0.433	0.613	-0.039	24.963	-6.409	59.570	-18.15	76.88	-113.39	33.418	0.490	-24.108	0.60321	0.32040	0.45355	-0.57239	22.8	13111	100
2025-5-25 10:15:27.902	WT901BLE68(801231B9234C)	0.152	0.570	-0.123	-20.447	46.082	102.356	-8.82	78.19	-103.29	33.418	0.490	-24.108	0.60321	0.32040	0.45355	-0.57239	22.8	13111	100
2025-5-25 10:15:27.902	WT901BLE68(801231B9234C)	-0.281	0.753	-0.067	-85.571	64.026	143.127	6.15	79.76	-86.44	33.418	0.490	-24.108	0.60321	0.32040	0.45355	-0.57239	22.8	13111	100
2025-5-25 10:15:27.945	WT901BLE68(801231B9234C)	-0.998	0.782	0.216	-161.011	41.565	172.241	25.87	79.85	-63.34	33.418	0.490	-24.108	0.60321	0.32040	0.45355	-0.57239	22.8	13111	100
2025-5-25 10:15:27.945	WT901BLE68(801231B9234C)	-1.933	0.842	0.617	-235.352	15.198	190.125	41.32	77.93	-43.02	23.324	3.430	-31.752	0.60321	0.32040	0.45355	-0.57239	22.8	13111	100
2025-5-25 10:15:27.990	WT901BLE68(801231B9234C)	-2.035	0.713	0.992	-277.344	0.793	243.286	49.97	74.56	-28.22	23.324	3.430	-31.752	0.60321	0.32040	0.45355	-0.57239	22.8	13111	100
2025-5-25 10:15:27.990	WT901BLE68(801231B9234C)	-2.266	0.565	1.331	-265.442	-76.294	290.466	53.30	69.22	-18.70	23.324	3.430	-31.752	0.60321	0.32040	0.45355	-0.57239	22.8	13111	100
2025-5-25 10:15:28.30	WT901BLE68(801231B9234C)	-1.904	0.833	1.346	-246.704	-43.335	260.925	53.11	63.80	-13.00	23.324	3.430	-31.752	0.60321	0.32040	0.45355	-0.57239	22.8	13111	100
2025-5-25 10:15:28.30	WT901BLE68(801231B9234C)	-1.591	0.542	1.234	-185.181	53.223	243.530	54.56	59.78	-6.23	23.324	3.430	-31.752	0.60321	0.32040	0.45355	-0.57239	22.8	13111	100
2025-5-25 10:15:28.58	WT901BLE68(801231B9234C)	-1.534	0.156	1.001	-106.873	144.897	188.599	58.26	57.38	1.59	23.324	3.430	-31.752	0.60321	0.32040	0.45355	-0.57239	22.8	13111	100
2025-5-25 10:15:28.58	WT901BLE68(801231B9234C)	-1.375	-0.082	0.835	-50.293	183.899	139.099	63.37	56.30	9.70	23.324	3.430	-31.752	0.60321	0.32040	0.45355	-0.57239	22.8	13111	100
2025-5-25 10:15:28.121	WT901BLE68(801231B9234C)	-1.174	-0.249	0.685	-14.587	150.146	99.792	68.17	55.62	16.42	23.324	3.430	-31.752	0.60321	0.32040	0.45355	-0.57239	22.8	13111	100
2025-5-25 10:15:28.121	WT901BLE68(801231B9234C)	-1.000	-0.321	0.426	1.160	90.820	76.355	71.39	54.95	20.73	23.324	3.430	-31.752	0.60321	0.32040	0.45355	-0.57239	22.8	13111	100
2025-5-25 10:15:28.147	WT901BLE68(801231B9234C)	-0.796	-0.371	0.175	7.751	33.325	68.909	73.04	54.15	22.86	23.324	3.430	-31.752	0.60321	0.32040	0.45355	-0.57239	22.8	13111	100
2025-5-25 10:15:28.147	WT901BLE68(801231B9234C)	-0.519	-0.506	-0.008	16.907	-15.747	66.589	73.41	53.16	23.08	23.324	3.430	-31.752	0.75500	0.45740	0.45471	-0.11780	22.8	13111	100
2025-5-25 10:15:28.192	WT901BLE68(801231B9234C)	-0.390	-0.621	-0.108	27.222	-37.415	57.190	73.22	52.23	22.06	23.324	3.430	-31.752	0.75500	0.45740	0.45471	-0.11780	22.8	13111	100
2025-5-25 10:15:28.192	WT901BLE68(801231B9234C)	-0.083	0.254	-0.056	31.067	-21.362	39.673	73.40	51.71	20.95	23.324	3.430	-31.752	0.75500	0.45740	0.45471	-0.11780	22.8	13111	100
2025-5-25 10:15:28.224	WT901BLE68(801231B9234C)	-0.076	-0.967	-0.021	30.090	12.878	-6.958	74.24	52.07	20.43	23.324	3.430	-31.752	0.75500	0.45740	0.45471	-0.11780	22.8	13111	100
2025-5-25 10:15:28.224	WT901BLE68(801231B9234C)	-0.145	-1.059	0.096	34.790	32.104	-67.322	75.76	53.70	20.45	23.324	3.430	-31.752	0.75500	0.45740	0.45471	-0.11780	22.8	13111	100
2025-5-25 10:15:28.260	WT901BLE68(801231B9234C)	-0.519	-1.108	0.122	59.387	34.424	-127.441	77.59	56.65	20.38	23.324	3.430	-31.752	0.75500	0.45740	0.45471	-0.11780	22.8	13111	100
2025-5-25 10:15:28.260	WT901BLE68(801231B9234C)	-1.062	-0.875	0.179	92.896	55.725	-167.908	80.71	60.60	21.04	23.324	3.430	-31.752	0.75500	0.45740	0.45471	-0.11780	22.8	13111	100
2025-5-25 10:15:28.308	WT901BLE68(801231B9234C)	-1.967	-0.604	0.329	106.873	38.269	-200.806	84.66	65.19	22.08	23.324	3.430	-31.752	0.75500	0.45740	0.45471	-0.11780	22.8	13111	100
2025-5-25 10:15:28.308	WT901BLE68(801231B9234C)	-2.498	-0.495	0.684	100.586	8.362	-237.915	88.05	70.33	22.51	23.324	3.430	-31.752	0.75500	0.45740	0.45471	-0.11780	22.8	13111	100
2025-5-25 10:15:28.350	WT901BLE68(801231B9234C)	-3.056	-0.409	0.846	71.228	-133.118	-256.226	85.06	75.90	16.77	23.324	3.430	-31.752	0.75500	0.45740	0.45471	-0.11780	22.8	13111	100
2025-5-25 10:15:28.350	WT901BLE68(801231B9234C)	-3.099	0.284	1.061	32.532	-226.196	-226.929	63.36	79.79	-7.24	35.084	5.194	-21.854	0.75500	0.45740	0.45471	-0.11780	22.8	13111	100
2025-5-25 10:15:28.397	WT901BLE68(801231B9234C)	-1.951	0.517	0.941	5.737	-287.292	-248.596	23.53	79.55	-48.27	35.084	5.194	-21.854	0.75500	0.45740	0.45471	-0.11780	22.8	13111	100
2025-5-25 10:15:28.398	WT901BLE68(801231B9234C)	-1.163	0.805	0.866	31.860	-251.099	-202.271	0.29	74.86	-72.42	35.084	5.194	-21.854	0.75500	0.45740	0.45471	-0.11780	22.8	13111	100
2025-5-25 10:15:28.431	WT901BLE68(801231B9234C)	-0.987	1.041	0.811	68.359	-58.044	-174.011	-9.73	71.88	-83.92	35.084	5.194	-21.854	0.75500	0.45740	0.45471	-0.11780	22.8	13111	100
2025-5-25 10:15:28.431	WT901BLE68(801231B9234C)	-0.977	1.008	0.614	90.637	134.216	-148.865	-17.75	72.47	-93.81	35.084	5.194	-21.854	0.75500	0.45740	0.45471	-0.11780	22.8	13111	100
2025-5-25 10:15:28.463	WT901BLE68(801231B9234C)	-0.771	0.857	0.401	130.188	232.300	-127.075	-28.41	75.30	-106.95	35.084	5.194	-21.854	0.75500	0.45740	0.45471	-0.11780	22.8	13111	100
2025-5-25 10:15:28.463	WT901BLE68(801231B9234C)	-0.551	0.761	0.244	158.691	229.248	-90.942	-42.18	78.14	-123.85	35.084	5.194	-21.854	0.75500	0.45740	0.45471	-0.11780	22.8	13111	100
2025-5-25 10:15:28.509	WT901BLE68(801231B9234C)	-0.505	0.710	0.146	153.442	184.387	-54.077	-57.35	80.09	-142.06	35.084	5.194	-21.854	0.75500	0.45740	0.45471	-0.11780	22.8	13111	100
2025-5-25 10:15:28.509	WT901BLE68(801231B9234C)	-0.218	0.833	0.083	123.962	76.538	-20.264	-67.25	81.10	-154.36	35.084	5.194	-21.854	0.75500	0.45740	0.45471	-0.11780	22.8	13111	100
2025-5-25 10:15:28.552	WT901BLE68(801231B9234C)	0.179	0.746	-0.013	106.201	-43.457	4.272	-63.96	81.41	-152.74	35.084	5.194	-21.854	0.75500	0.45740	0.45471	-0.11780	22.8	13111	100
2025-5-25 10:15:28.552	WT901BLE68(801231B9234C)	0.489	0.730	-0.101	80.566	-99.670	19.165	-51.33	81.21	-141.23	35.084	5.194	-21.854	0.49036	0.44290	0.50244	-0.55750	22.8	13111	100
2025-5-25 10:15:28.577	WT901BLE68(801231B9234C)	0.549	0.661	-0.172	31.677	-88.074	47.729	-37.43	80.79	-127.64	35.084	5.194	-21.854	0.49036	0.44290	0.50244	-0.55750	22.8	13111	100
2025-5-25 10:15:28.577	WT901BLE68(801231B9234C)	0.305	0.556	-0.190	-15.198	-27.771	89.966	-24.23	81.18	-113.77	35.084	5.194	-21.854	0.49036	0.44290	0.50244	-0.55750	22.8	13111	100
2025-5-25 10:15:28.630	WT901BLE68(801231B9234C)	-0.204	0.696	-0.137	-55.542	19.531	132.568	-6.44	82.36	-94.55	35.084	5.194	-21.854	0.49036	0.44290	0.50244	-0.55750	22.8	13111	100
2025-5-25 10:15:28.630	WT901BLE68(801231B9234C)	-0.981	1.020	0.075	-135.864	7.385	178.650	20.28	82.49	-65.16	35.084	5.194	-21.854	0.49036	0.44290	0.50244	-0.55750	22.8	13111	100
2025-5-25 10:15:28.665	WT901BLE68(801231B9234C)	-2.152	1.162	0.321	-211.426	-16.113	213.135	41.77	80.05	-39.33	35.084	5.194	-21.854	0.49036	0.44290	0.50244	-0.55750	22.8	13111	100
2025-5-25 10:15:28.665	WT901BLE68(801231B9234C)	-2.029	1.173	0.571	-243.164	-30.762	271.240	52.34	75.77	-23.35	35.084	5.194	-21.854	0.49036	0.44290	0.50244	-0.55750	22.8	13111	100
2025-5-25 10:15:28.823	WT901BLE68(801231B9234C)	-2.125	0.886	0.955	-207.458	-53.467	331.970	57.59	69.68	-12.89	35.084	5.194	-21.854	0.49036	0.44290	0.50244	-0.55750	22.8	13111	100
2025-5-25 10:15:28.823	WT901BLE68(801231B9234C)	-1.999	1.025	0.967	-167.358	59.814	270.630	61.32	64.37	-4.58	35.084	5.194	-21.854	0.49036	0.44290	0.50244	-0.55750	22.8	13111	100
2025-5-25 10:15:28.823	WT901BLE68(801231B9234C)	-1.949	0.609	0.877	-130.005	204.651	250.305	67.64	60.89	6.15	35.084	5.194	-21.854	0.49036	0.44290	0.50244	-0.55750	22.8	13111	100
2025-5-25 10:15:28.823	WT901BLE68(801231B9234C)	-1.994	0.075	0.680	-80.383	259.033	211.487	75.61	58.01	18.01	28.126	5.292	-28.322	0.49036	0.44290	0.50244	-0.55750	22.8	13111	100
2025-5-25 10:15:28.823	WT901BLE68(801231B9234C)	-1.806	-0.248	0.603	-50.171	221.008	180.603	82.23	55.20	27.64	28.126	5.292	-28.322	0.49036	0.44290	0.50244	-0.55750	22.8	13111	100
2025-5-25 10:15:28.823	WT901BLE68(801231B9234C)	-1.524	-0.396	0.524	-38.025	93.079	141.541	85.28	52.56	32.68	28.126	5.292	-28.322	0.49036	0.44290	0.50244	-0.55750	22.8	13111	100
2025-5-25 10:15:28.823	WT901BLE68(801231B9234C)	-1.084	-0.409	0.433	-26.001	-28.442	103.333	84.90	50.56	33.09	28.126	5.292	-28.322	0.49036	0.44290	0.50244	-0.55750	22.8	13111	100
2025-5-25 10:15:28.823	WT901BLE68(801231B9234C)	-0.694	-0.474	0.400	-19.958	-88.684	73.059	82.77	49.14	30.81	28.126	5.292	-28.322	0.49036	0.44290	0.50244	-0.55750	22.8	13111	100
2025-5-25 10:15:28.867	WT901BLE68(801231B9234C)	-0.356	-0.624	0.346	-18.372	-94.177	43.640	80.30	48.27	27.69	28.126	5.292	-28.322	0.49036	0.44290	0.50244	-0.55750	22.8	13111	100
2025-5-25 10:15:28.867	WT901BLE68(801231B9234C)	-0.058	-0.762	0.304	-13.794	-69.214	19.897	78.48	47.97	24.87	28.126	5.292	-28.322	0.49036	0.44290	0.50244	-0.55750	22.8	13111	100
2025-5-25 10:15:28.916	WT901BLE68(801231B9234C)	0.070	-0.927	0.214	-15.808	-52.551	-16.174	77.26	48.33	22.52	28.126	5.292	-28.322	0.49036	0.44290	0.50244	-0.55750	22.8	13111	100
2025-5-25 10:15:28.916	WT901BLE68(801231B9234C)	-0.196	-1.039	0.084	-13.062	-44.128	-62.256	76.10	49.62	20.15	28.126	5.292	-28.322	0.49036	0.44290	0.50244	-0.55750	22.8	13111	100
2025-5-25 10:15:28.957	WT901BLE68(801231B9234C)	-0.367	-0.498	-0.003	-5.005	-10.193	-79.285	75.51	51.81	18.28	28.126	5.292	-28.322	0.49036	0.44290	0.50244	-0.55750	22.8	13111	100
2025-5-25 10:15:28.957	WT901BLE68(801231B9234C)	-0.586	-0.333	0.139	31.433	2.014	-126.953	75.58	54.85	16.81	28.126	5.292	-28.322	0.73099	0.48941	0.43887	-0.18277	22.8	13111	100
2025-5-25 10:15:28.981	WT901BLE68(801231B9234C)	-0.921	-0.504	0.220	42.114	0.061	-165.710	76.13	58.57	15.39	28.126	5.292	-28.322	0.73099	0.48941	0.43887	-0.18277	22.8	13111	100
2025-5-25 10:15:28.981	WT901BLE68(801231B9234C)	-1.301	-0.434	0.283	42.725	-31.067	-206.116	75.35	62.95	12.49	28.126	5.292	-28.322	0.73099	0.48941	0.43887	-0.18277	22.8	13111	100
2025-5-25 10:15:29.24	WT901BLE68(801231B9234C)	-2.180	-0.495	0.459	53.162	-51.270	-229.065	72.44	67.65	7.22	28.126	5.292	-28.322	0.73099	0.48941	0.43887	-0.18277	22.8	13111	100
2025-5-25 10:15:29.25	WT901BLE68(801231B9234C)	-2.454	-0.628	0.670	56.824	-30.945	-243.774	67.46	72.54	-0.14	28.126	5.292	-28.322	0.73099	0.48941	0.43887	-0.18277	22.8	13111	100
2025-5-25 10:15:29.70	WT901BLE68(801231B9234C)	-3.420	-0.598	0.667	63.049	-30.212	-221.985	58.65	76.89	-11.18	28.126	5.292	-28.322	0.73099	0.48941	0.43887	-0.18277	22.8	13111	100
2025-5-25 10:15:29.70	WT901BLE68(801231B9234C)	-3.859	-0.354	0.706	65.796	27.283	-253.113	45.73	81.06	-26.24	28.126	5.292	-28.322	0.73099	0.48941	0.43887	-0.18277	22.8	13111	100
2025-5-25 10:15:29.126	WT901BLE68(801231B9234C)	-3.079	0.361	0.764	79.407	-60.730	-272.522	10.93	83.57	-63.07	28.126	5.292	-28.322	0.73099	0.48941	0.43887	-0.18277	22.8	13111	100
2025-5-25 10:15:29.126	WT901BLE68(801231B9234C)	-1.815	0.770	0.678	95.825	-110.962	-258.789	-22.47	80.80	-98.51	28.126	5.292	-28.322	0.73099	0.48941	0.43887	-0.18277	22.8	13111	100
2025-5-25 10:15:29.160	WT901BLE68(801231B9234C)	-1.090	0.863	0.397	144.470	-39.490	-275.269	-38.62	76.81	-117.42	28.126	5.292	-28.322	0.73099	0.48941	0.43887	-0.18277	22.8	13111	100
2025-5-25 10:15:29.160	WT901BLE68(801231B9234C)	-0.764	0.987	0.223	180.359	66.284	-256.653	-50.15	73.62	-132.58	28.126	5.292	-28.322	0.73099	0.48941	0.43887	-0.18277	22.8	13111	100
2025-5-25 10:15:29.184	WT901BLE68(801231B9234C)	-0.568	0.965	0.168	185.608	119.324	-197.937	-59.58	71.42	-146.00	28.126	5.292	-28.322	0.73099	0.48941	0.43887	-0.18277	22.8	13111	100
2025-5-25 10:15:29.184	WT901BLE68(801231B9234C)	-0.161	1.463	0.079	177.490	66.956	-145.264	-64.47	69.71	-154.51	28.126	5.292	-28.322	0.73099	0.48941	0.43887	-0.18277	22.8	13111	100
2025-5-25 10:15:29.233	WT901BLE68(801231B9234C)	0.238	1.344	0.008	154.663	-5.615	-118.286	-64.79	68.07	-157.86	28.126	5.292	-28.322	0.73099	0.48941	0.43887	-0.18277	22.8	13111	100
2025-5-25 10:15:29.233	WT901BLE68(801231B9234C)	0.506	1.237	-0.088	137.817	-19.775	-93.872	-63.14	66.65	-158.64	28.126	5.292	-28.322	0.73099	0.48941	0.43887	-0.18277	22.8	13111	100
2025-5-25 10:15:29.272	WT901BLE68(801231B9234C)	0.560	0.983	-0.195	99.121	-3.662	-51.086	-61.86	66.03	-159.19	28.126	5.292	-28.322	0.73099	0.48941	0.43887	-0.18277	22.8	13111	100
2025-5-25 10:15:29.272	WT901BLE68(801231B9234C)	0.415	0.875	-0.227	37.781	28.259	20.874	-61.36	66.85	-159.48	28.126	5.292	-28.322	0.73099	0.48941	0.43887	-0.18277	22.8	13111	100
2025-5-25 10:15:29.332	WT901BLE68(801231B9234C)	0.124	0.648	-0.228	-29.846	58.777	93.140	-61.95	69.39	-159.47	28.126	5.292	-28.322	0.73099	0.48941	0.43887	-0.18277	22.8	13111	100
2025-5-25 10:15:29.332	WT901BLE68(801231B9234C)	-0.435	0.752	-0.087	-79.163	62.378	156.433	-62.80	73.28	-158.69	28.126	5.292	-28.322	0.73099	0.48941	0.43887	-0.18277	22.8	13111	100
2025-5-25 10:15:29.342	WT901BLE68(801231B9234C)	-1.223	0.893	0.124	-168.823	30.945	192.871	-61.52	77.85	-154.20	28.126	5.292	-28.322	0.73099	0.48941	0.43887	-0.18277	22.8	13111	100
2025-5-25 10:15:29.342	WT901BLE68(801231B9234C)	-1.858	0.770	0.197	-263.550	-36.133	220.520	-52.31	82.16	-139.83	28.126	5.292	-28.322	0.73099	0.48941	0.43887	-0.18277	22.8	13111	100
2025-5-25 10:15:29.386	WT901BLE68(801231B9234C)	-2.332	0.396	0.580	-283.752	-97.839	271.118	-13.95	84.25	-95.17	28.126	5.292	-28.322	0.73099	0.48941	0.43887	-0.18277	22.8	13111	100
2025-5-25 10:15:29.386	WT901BLE68(801231B9234C)	-2.413	-0.038	0.989	-279.175	-94.788	282.471	24.91	81.38	-50.02	28.126	5.292	-28.322	0.73099	0.48941	0.43887	-0.18277	23.3	13111	100
2025-5-25 10:15:29.433	WT901BLE68(801231B9234C)	-2.347	0.166	1.187	-263.855	-30.090	246.399	39.27	77.34	-29.48	28.126	5.292	-28.322	0.73099	0.48941	0.43887	-0.18277	23.3	13111	100
2025-5-25 10:15:29.433	WT901BLE68(801231B9234C)	-2.104	0.109	0.938	-224.426	118.164	208.862	50.39	74.91	-12.76	28.126	5.292	-28.322	0.73099	0.48941	0.43887	-0.18277	23.3	13111	100
2025-5-25 10:15:29.475	WT901BLE68(801231B9234C)	-1.645	-0.336	0.903	-138.794	165.283	164.307	62.30	73.49	3.45	28.126	5.292	-28.322	0.73099	0.48941	0.43887	-0.18277	23.3	13111	100
2025-5-25 10:15:29.476	WT901BLE68(801231B9234C)	-1.301	-0.456	0.871	-78.552	148.987	124.390	72.01	72.09	15.95	28.126	5.292	-28.322	0.73099	0.48941	0.43887	-0.18277	23.3	13111	100
2025-5-25 10:15:29.532	WT901BLE68(801231B9234C)	-1.089	-0.417	0.678	-44.373	104.309	96.252	78.49	70.71	24.25	28.126	5.292	-28.322	0.73099	0.48941	0.43887	-0.18277	23.3	13111	100
2025-5-25 10:15:29.532	WT901BLE68(801231B9234C)	-0.870	-0.426	0.421	-25.269	34.729	80.933	81.02	69.36	27.91	28.126	5.292	-28.322	0.73099	0.48941	0.43887	-0.18277	23.3	13111	100
2025-5-25 10:15:29.545	WT901BLE68(801231B9234C)	-0.604	-0.491	0.215	-15.259	-27.039	76.965	80.17	68.00	27.70	28.126	5.292	-28.322	0.73099	0.48941	0.43887	-0.18277	23.3	13111	100
2025-5-25 10:15:29.545	WT901BLE68(801231B9234C)	-0.337	-0.603	0.089	-10.132	-62.866	76.843	77.44	66.55	25.25	28.126	5.292	-28.322	0.73099	0.48941	0.43887	-0.18277	23.3	13111	100
2025-5-25 10:15:29.590	WT901BLE68(801231B9234C)	-0.034	-0.747	0.008	-3.052	-61.340	72.266	74.75	65.17	22.50	28.126	5.292	-28.322	0.73099	0.48941	0.43887	-0.18277	23.3	13111	100
2025-5-25 10:15:29.590	WT901BLE68(801231B9234C)	0.129	-0.955	-0.052	-1.770	-44.067	68.420	73.28	63.96	20.49	28.126	5.292	-28.322	0.73099	0.48941	0.43887	-0.18277	23.3	13111	100
2025-5-25 10:15:29.632	WT901BLE68(801231B9234C)	0.148	-0.948	-0.004	2.991	-27.527	22.522	72.78	63.56	19.05	28.126	5.292	-28.322	0.73099	0.48941	0.43887	-0.18277	23.3	13111	100
2025-5-25 10:15:29.633	WT901BLE68(801231B9234C)	-0.083	-0.961	-0.004	22.217	-7.019	-35.889	72.92	64.43	17.87	35.084	9.800	-20.678	0.73099	0.48941	0.43887	-0.18277	23.3	13111	100
2025-5-25 10:15:29.679	WT901BLE68(801231B9234C)	-0.330	-0.822	-0.010	46.509	21.973	-72.998	74.34	66.37	17.52	35.084	9.800	-20.678	0.73099	0.48941	0.43887	-0.18277	23.3	13111	100
2025-5-25 10:15:29.679	WT901BLE68(801231B9234C)	-0.478	-0.766	-0.013	64.758	39.246	-100.098	77.09	69.03	18.23	35.084	9.800	-20.678	0.73099	0.48941	0.43887	-0.18277	23.3	13111	100
2025-5-25 10:15:29.735	WT901BLE68(801231B9234C)	-0.898	-0.779	0.039	89.661	41.504	-131.287	80.99	72.28	19.74	35.084	9.800	-20.678	0.73099	0.48941	0.43887	-0.18277	23.3	13111	100
2025-5-25 10:15:29.735	WT901BLE68(801231B9234C)	-1.994	-0.803	0.105	113.098	37.964	-168.823	86.17	76.13	22.07	35.084	9.800	-20.678	0.73099	0.48941	0.43887	-0.18277	23.3	13111	100
2025-5-25 10:15:29.750	WT901BLE68(801231B9234C)	-2.691	-0.818	0.324	127.991	49.927	-183.472	94.86	80.35	27.53	35.084	9.800	-20.678	0.73099	0.48941	0.43887	-0.18277	23.3	13111	100
2025-5-25 10:15:29.750	WT901BLE68(801231B9234C)	-2.897	-0.661	0.362	91.553	-65.186	-175.415	100.83	84.40	30.79	35.084	9.800	-20.678	0.73099	0.48941	0.43887	-0.18277	23.3	13111	100
2025-5-25 10:15:29.790	WT901BLE68(801231B9234C)	-3.074	-0.378	0.460	84.961	-142.273	-195.190	60.49	88.36	-11.90	35.084	9.800	-20.678	0.73099	0.48941	0.43887	-0.18277	23.3	13111	100
2025-5-25 10:15:29.791	WT901BLE68(801231B9234C)	-2.359	0.012	0.538	55.908	-174.255	-250.305	-35.06	85.36	-109.06	35.084	9.800	-20.678	0.73099	0.48941	0.43887	-0.18277	23.3	13111	100
2025-5-25 10:15:29.835	WT901BLE68(801231B9234C)	-1.598	0.331	0.457	76.477	-174.988	-210.388	-43.08	79.48	-118.41	35.084	9.800	-20.678	0.73099	0.48941	0.43887	-0.18277	23.3	13111	100
2025-5-25 10:15:29.835	WT901BLE68(801231B9234C)	-1.593	0.370	0.246	126.526	-26.062	-195.374	-47.74	75.49	-125.32	35.084	9.800	-20.678	0.53046	0.34735	0.53787	-0.55548	23.3	13111	100
2025-5-25 10:15:29.882	WT901BLE68(801231B9234C)	-1.700	0.496	0.346	150.330	27.893	-186.646	-53.77	72.99	-134.42	35.084	9.800	-20.678	0.53046	0.34735	0.53787	-0.55548	23.3	13111	100
2025-5-25 10:15:29.882	WT901BLE68(801231B9234C)	-0.905	1.021	0.616	216.919	-73.853	-179.626	-54.84	69.85	-139.31	35.084	9.800	-20.678	0.53046	0.34735	0.53787	-0.55548	23.3	13111	100
2025-5-25 10:15:29.929	WT901BLE68(801231B9234C)	0.033	1.238	0.357	269.348	-158.936	-139.893	-49.10	65.93	-138.13	35.084	9.800	-20.678	0.53046	0.34735	0.53787	-0.55548	23.3	13111	100
2025-5-25 10:15:29.929	WT901BLE68(801231B9234C)	0.492	1.130	0.091	255.859	-135.132	-117.615	-42.84	62.45	-136.58	35.084	9.800	-20.678	0.53046	0.34735	0.53787	-0.55548	23.3	13111	100
2025-5-25 10:15:29.949	WT901BLE68(801231B9234C)	0.742	1.032	-0.106	231.079	-68.909	-82.581	-38.29	60.19	-136.36	35.084	9.800	-20.678	0.53046	0.34735	0.53787	-0.55548	23.3	13111	100
2025-5-25 10:15:29.950	WT901BLE68(801231B9234C)	0.668	1.016	-0.134	177.917	14.099	-17.944	-34.70	59.96	-136.39	35.084	9.800	-20.678	0.53046	0.34735	0.53787	-0.55548	23.3	13111	100
2025-5-25 10:15:29.993	WT901BLE68(801231B9234C)	0.291	0.711	-0.097	101.868	106.812	58.716	-32.05	62.19	-135.89	35.084	9.800	-20.678	0.53046	0.34735	0.53787	-0.55548	23.3	13111	100
2025-5-25 10:15:29.993	WT901BLE68(801231B9234C)	-0.185	0.692	-0.066	31.860	154.968	131.714	-29.11	66.42	-133.57	35.084	9.800	-20.678	0.53046	0.34735	0.53787	-0.55548	23.3	13111	100
2025-5-25 10:15:30.36	WT901BLE68(801231B9234C)	-0.607	0.847	0.057	-53.467	126.587	191.956	-23.49	71.17	-126.77	35.084	9.800	-20.678	0.53046	0.34735	0.53787	-0.55548	23.3	13111	100
2025-5-25 10:15:30.37	WT901BLE68(801231B9234C)	-0.935	0.999	0.212	-131.897	61.768	220.642	-12.43	74.65	-112.67	35.084	9.800	-20.678	0.53046	0.34735	0.53787	-0.55548	23.3	13111	100
2025-5-25 10:15:30.82	WT901BLE68(801231B9234C)	-1.344	1.020	0.404	-189.209	15.991	235.901	3.46	75.92	-92.41	16.856	3.038	-35.672	0.53046	0.34735	0.53787	-0.55548	23.3	13111	100
2025-5-25 10:15:30.83	WT901BLE68(801231B9234C)	-1.700	0.965	0.616	-214.966	24.109	261.475	20.35	75.18	-70.33	16.856	3.038	-35.672	0.53046	0.34735	0.53787	-0.55548	23.3	13111	100
2025-5-25 10:15:30.132	WT901BLE68(801231B9234C)	-1.753	0.833	0.605	-191.101	92.163	299.194	37.07	73.37	-48.38	16.856	3.038	-35.672	0.53046	0.34735	0.53787	-0.55548	23.3	13111	100
2025-5-25 10:15:30.132	WT901BLE68(801231B9234C)	-2.137	0.714	0.521	-158.020	183.105	290.894	53.46	70.79	-27.28	16.856	3.038	-35.672	0.53046	0.34735	0.53787	-0.55548	23.3	13111	100
2025-5-25 10:15:30.152	WT901BLE68(801231B9234C)	-2.155	0.662	0.476	-119.019	289.673	260.437	69.14	68.38	-7.42	16.856	3.038	-35.672	0.53046	0.34735	0.53787	-0.55548	23.3	13111	100
2025-5-25 10:15:30.152	WT901BLE68(801231B9234C)	-2.266	0.407	0.402	-54.321	333.313	224.060	84.00	65.33	10.77	16.856	3.038	-35.672	0.53046	0.34735	0.53787	-0.55548	23.3	13111	100
2025-5-25 10:15:30.195	WT901BLE68(801231B9234C)	-2.413	0.040	0.381	-9.766	317.139	220.764	95.81	60.92	24.79	16.856	3.038	-35.672	0.53046	0.34735	0.53787	-0.55548	23.3	13111	100
2025-5-25 10:15:30.195	WT901BLE68(801231B9234C)	-2.020	-0.381	0.380	14.648	210.083	197.083	102.51	56.07	32.76	16.856	3.038	-35.672	0.53046	0.34735	0.53787	-0.55548	23.3	13111	100
2025-5-25 10:15:30.240	WT901BLE68(801231B9234C)	-1.454	-0.508	0.380	34.668	61.401	132.507	104.79	52.79	34.97	16.856	3.038	-35.672	0.53046	0.34735	0.53787	-0.55548	23.3	13111	100
2025-5-25 10:15:30.240	WT901BLE68(801231B9234C)	-0.964	-0.541	0.435	48.218	-18.677	72.449	104.95	51.38	33.96	16.856	3.038	-35.672	0.53046	0.34735	0.53787	-0.55548	23.3	13111	100
2025-5-25 10:15:30.288	WT901BLE68(801231B9234C)	-0.561	-0.598	0.480	49.744	-32.715	19.043	104.93	51.31	32.28	16.856	3.038	-35.672	0.62033	0.61847	0.44919	-0.17548	23.3	13111	100
2025-5-25 10:15:30.288	WT901BLE68(801231B9234C)	-0.290	-0.593	0.500	45.227	-23.621	-17.517	105.41	52.09	30.99	16.856	3.038	-35.672	0.62033	0.61847	0.44919	-0.17548	23.3	13111	100
2025-5-25 10:15:30.310	WT901BLE68(801231B9234C)	-0.168	-0.595	0.519	27.649	-9.033	-46.570	106.36	53.41	30.34	16.856	3.038	-35.672	0.62033	0.61847	0.44919	-0.17548	23.3	13111	100
2025-5-25 10:15:30.310	WT901BLE68(801231B9234C)	-0.238	-0.667	0.756	3.601	-5.920	-76.660	107.48	55.27	30.32	16.856	3.038	-35.672	0.62033	0.61847	0.44919	-0.17548	23.3	13111	100
2025-5-25 10:15:30.353	WT901BLE68(801231B9234C)	-0.533	-0.590	0.719	-17.822	-18.066	-106.445	108.51	57.77	30.59	16.856	3.038	-35.672	0.62033	0.61847	0.44919	-0.17548	23.3	13111	100
2025-5-25 10:15:30.353	WT901BLE68(801231B9234C)	-0.554	-0.574	0.527	-31.982	-50.476	-143.066	109.03	61.03	30.63	16.856	3.038	-35.672	0.62033	0.61847	0.44919	-0.17548	23.3	13111	100
2025-5-25 10:15:30.399	WT901BLE68(801231B9234C)	-0.308	-0.596	0.424	-22.705	-93.445	-175.964	108.50	65.30	29.49	16.856	3.038	-35.672	0.62033	0.61847	0.44919	-0.17548	23.3	13111	100
2025-5-25 10:15:30.399	WT901BLE68(801231B9234C)	-0.630	-0.474	0.323	-12.024	-75.928	-202.576	108.33	70.11	28.48	16.856	3.038	-35.672	0.62033	0.61847	0.44919	-0.17548	23.3	13111	100
2025-5-25 10:15:30.442	WT901BLE68(801231B9234C)	-1.506	-0.566	0.357	-9.033	-23.376	-225.891	111.47	75.07	30.91	16.856	3.038	-35.672	0.62033	0.61847	0.44919	-0.17548	23.3	13111	100
2025-5-25 10:15:30.443	WT901BLE68(801231B9234C)	-2.540	-0.786	0.509	-2.563	-23.315	-233.887	120.89	79.92	39.65	16.856	3.038	-35.672	0.62033	0.61847	0.44919	-0.17548	23.3	13111	100
2025-5-25 10:15:30.488	WT901BLE68(801231B9234C)	-3.185	-0.594	0.641	-6.409	-91.797	-224.976	136.48	84.70	54.55	35.378	1.862	-20.482	0.62033	0.61847	0.44919	-0.17548	23.3	13111	100
2025-5-25 10:15:30.488	WT901BLE68(801231B9234C)	-3.339	-0.259	0.676	-20.203	-202.087	-239.136	-135.64	89.14	142.11	35.378	1.862	-20.482	0.62033	0.61847	0.44919	-0.17548	23.3	13111	100
2025-5-25 10:15:30.511	WT901BLE68(801231B9234C)	-2.464	0.141	0.455	-16.907	-304.565	-251.587	-54.46	82.89	-136.53	35.378	1.862	-20.482	0.62033	0.61847	0.44919	-0.17548	23.3	13111	100
2025-5-25 10:15:30.511	WT901BLE68(801231B9234C)	-1.467	0.290	0.519	3.906	-293.091	-231.750	-46.12	75.15	-127.86	35.378	1.862	-20.482	0.62033	0.61847	0.44919	-0.17548	23.3	13111	100
2025-5-25 10:15:30.555	WT901BLE68(801231B9234C)	-1.069	0.541	0.571	62.073	-115.784	-224.976	-46.29	69.30	-128.73	35.378	1.862	-20.482	0.62033	0.61847	0.44919	-0.17548	23.3	13111	100
2025-5-25 10:15:30.555	WT901BLE68(801231B9234C)	-0.947	0.792	0.366	107.239	74.158	-203.308	-51.20	66.36	-135.69	35.378	1.862	-20.482	0.62033	0.61847	0.44919	-0.17548	23.3	13111	100
2025-5-25 10:15:30.601	WT901BLE68(801231B9234C)	-0.816	0.944	0.105	137.878	178.528	-162.170	-58.26	65.48	-145.93	35.378	1.862	-20.482	0.62033	0.61847	0.44919	-0.17548	23.3	13111	100
2025-5-25 10:15:30.601	WT901BLE68(801231B9234C)	-0.425	1.010	0.038	144.958	137.146	-105.652	-63.74	65.18	-154.67	35.378	1.862	-20.482	0.62033	0.61847	0.44919	-0.17548	23.3	13111	100
2025-5-25 10:15:30.645	WT901BLE68(801231B9234C)	-0.069	0.766	0.095	138.611	78.491	-64.026	-65.87	65.24	-159.65	35.378	1.862	-20.482	0.62033	0.61847	0.44919	-0.17548	23.3	13111	100
2025-5-25 10:15:30.645	WT901BLE68(801231B9234C)	0.245	0.822	0.025	142.151	32.166	-18.372	-65.25	65.68	-161.59	35.378	1.862	-20.482	0.62033	0.61847	0.44919	-0.17548	23.3	13111	100
2025-5-25 10:15:30.690	WT901BLE68(801231B9234C)	0.431	0.735	-0.083	123.901	14.038	13.489	-63.24	66.47	-161.70	35.378	1.862	-20.482	0.39334	0.38919	0.50485	-0.66241	23.3	13111	100
2025-5-25 10:15:30.691	WT901BLE68(801231B9234C)	0.410	0.656	-0.147	96.680	19.043	52.246	-60.81	67.93	-160.83	35.378	1.862	-20.482	0.39334	0.38919	0.50485	-0.66241	23.3	13111	100
2025-5-25 10:15:30.730	WT901BLE68(801231B9234C)	0.146	0.546	-0.145	50.476	38.940	104.858	-58.40	70.44	-159.17	35.378	1.862	-20.482	0.39334	0.38919	0.50485	-0.66241	23.3	13111	100
2025-5-25 10:15:30.730	WT901BLE68(801231B9234C)	-0.144	0.550	-0.083	10.620	53.101	148.865	-55.69	74.01	-156.31	35.378	1.862	-20.482	0.39334	0.38919	0.50485	-0.66241	23.3	13111	100
2025-5-25 10:15:30.757	WT901BLE68(801231B9234C)	-0.583	0.833	0.025	-41.138	30.762	198.181	-49.49	78.20	-149.05	35.378	1.862	-20.482	0.39334	0.38919	0.50485	-0.66241	23.3	13111	100
2025-5-25 10:15:30.757	WT901BLE68(801231B9234C)	-1.478	0.993	0.302	-127.502	-15.503	226.868	-31.29	81.82	-128.18	35.378	1.862	-20.482	0.39334	0.38919	0.50485	-0.66241	23.3	13111	100
2025-5-25 10:15:30.802	WT901BLE68(801231B9234C)	-2.404	1.001	0.646	-197.144	-46.021	251.709	3.19	82.71	-89.43	35.378	1.862	-20.482	0.39334	0.38919	0.50485	-0.66241	23.3	13111	100
2025-5-25 10:15:30.803	WT901BLE68(801231B9234C)	-2.290	0.805	1.008	-200.928	-79.041	319.946	33.46	79.41	-54.15	35.378	1.862	-20.482	0.39334	0.38919	0.50485	-0.66241	23.3	13111	100
2025-5-25 10:15:30.848	WT901BLE68(801231B9234C)	-2.164	0.761	1.356	-183.105	-93.384	316.345	45.73	73.46	-37.23	35.378	1.862	-20.482	0.39334	0.38919	0.50485	-0.66241	23.3	13111	100
2025-5-25 10:15:30.848	WT901BLE68(801231B9234C)	-1.720	0.782	1.246	-162.109	33.936	269.226	52.04	68.67	-26.55	35.378	1.862	-20.482	0.39334	0.38919	0.50485	-0.66241	23.3	13111	100
2025-5-25 10:15:30.895	WT901BLE68(801231B9234C)	-1.722	0.288	1.032	-131.042	181.213	236.694	60.45	65.73	-13.91	21.952	4.508	-31.556	0.39334	0.38919	0.50485	-0.66241	23.3	13111	100
2025-5-25 10:15:30.896	WT901BLE68(801231B9234C)	-1.730	-0.107	0.817	-91.431	263.611	198.792	70.56	63.70	-0.05	21.952	4.508	-31.556	0.39334	0.38919	0.50485	-0.66241	23.3	13111	100
2025-5-25 10:15:30.932	WT901BLE68(801231B9234C)	-1.565	-0.346	0.674	-72.388	248.413	169.556	79.77	61.50	12.39	21.952	4.508	-31.556	0.39334	0.38919	0.50485	-0.66241	23.3	13111	100
2025-5-25 10:15:30.932	WT901BLE68(801231B9234C)	-1.366	-0.439	0.543	-58.350	159.302	128.662	85.23	59.25	20.36	21.952	4.508	-31.556	0.39334	0.38919	0.50485	-0.66241	23.3	13111	100
2025-5-25 10:15:30.960	WT901BLE68(801231B9234C)	-1.062	-0.483	0.447	-55.725	51.025	83.252	86.69	57.64	23.53	21.952	4.508	-31.556	0.39334	0.38919	0.50485	-0.66241	23.3	13111	100
2025-5-25 10:15:30.961	WT901BLE68(801231B9234C)	-0.640	-0.520	0.349	-44.678	-31.921	54.504	85.24	56.72	22.95	21.952	4.508	-31.556	0.39334	0.38919	0.50485	-0.66241	23.3	13111	100
2025-5-25 10:15:31.5	WT901BLE68(801231B9234C)	-0.301	-0.522	0.285	-38.391	-59.448	37.109	82.73	56.20	20.64	21.952	4.508	-31.556	0.39334	0.38919	0.50485	-0.66241	23.3	13111	100
2025-5-25 10:15:31.5	WT901BLE68(801231B9234C)	-0.083	-0.642	0.250	-39.978	-60.120	17.639	80.13	56.02	17.95	21.952	4.508	-31.556	0.39334	0.38919	0.50485	-0.66241	23.3	13111	100
2025-5-25 10:15:31.54	WT901BLE68(801231B9234C)	0.051	-0.850	0.222	-39.734	-50.720	-13.367	77.78	56.41	15.29	21.952	4.508	-31.556	0.39334	0.38919	0.50485	-0.66241	23.3	13111	100
2025-5-25 10:15:31.54	WT901BLE68(801231B9234C)	0.080	-0.982	0.129	-33.569	-32.104	-53.711	75.89	57.62	12.91	21.952	4.508	-31.556	0.39334	0.38919	0.50485	-0.66241	23.3	13111	100
2025-5-25 10:15:31.75	WT901BLE68(801231B9234C)	-0.055	-0.978	0.015	-22.888	-11.719	-96.191	74.48	59.79	10.86	21.952	4.508	-31.556	0.71304	0.48779	0.44296	-0.23938	23.3	13111	100
2025-5-25 10:15:31.75	WT901BLE68(801231B9234C)	-0.314	-1.174	0.017	6.775	19.470	-134.094	73.96	62.78	9.65	21.952	4.508	-31.556	0.71304	0.48779	0.44296	-0.23938	23.3	13111	100
2025-5-25 10:15:31.128	WT901BLE68(801231B9234C)	-0.827	-0.887	0.083	39.307	52.124	-156.677	75.37	66.57	9.74	21.952	4.508	-31.556	0.71304	0.48779	0.44296	-0.23938	23.3	13111	100
2025-5-25 10:15:31.128	WT901BLE68(801231B9234C)	-1.767	-0.786	0.219	74.036	50.171	-188.660	77.95	71.09	10.32	21.952	4.508	-31.556	0.71304	0.48779	0.44296	-0.23938	23.3	13111	100
2025-5-25 10:15:31.163	WT901BLE68(801231B9234C)	-2.617	-0.739	0.591	79.163	29.907	-209.045	80.60	75.94	10.57	21.952	4.508	-31.556	0.71304	0.48779	0.44296	-0.23938	23.3	13111	100
2025-5-25 10:15:31.163	WT901BLE68(801231B9234C)	-2.975	-0.604	0.808	56.274	-90.637	-216.919	75.47	80.65	3.22	21.952	4.508	-31.556	0.71304	0.48779	0.44296	-0.23938	23.3	13111	100
2025-5-25 10:15:31.210	WT901BLE68(801231B9234C)	-3.360	-0.178	0.832	35.034	-204.712	-235.229	39.31	83.19	-34.73	21.952	4.508	-31.556	0.71304	0.48779	0.44296	-0.23938	23.3	13111	100
2025-5-25 10:15:31.210	WT901BLE68(801231B9234C)	-1.931	0.407	0.772	13.916	-263.977	-254.456	-3.08	80.12	-78.24	21.952	4.508	-31.556	0.71304	0.48779	0.44296	-0.23938	23.3	13111	100
2025-5-25 10:15:31.254	WT901BLE68(801231B9234C)	-1.285	0.547	0.740	57.861	-232.056	-218.872	-17.87	74.00	-94.19	21.952	4.508	-31.556	0.71304	0.48779	0.44296	-0.23938	23.3	13111	100
2025-5-25 10:15:31.254	WT901BLE68(801231B9234C)	-1.129	0.813	0.813	80.505	-27.710	-196.838	-25.57	70.48	-103.64	21.952	4.508	-31.556	0.71304	0.48779	0.44296	-0.23938	23.3	13111	100
2025-5-25 10:15:31.278	WT901BLE68(801231B9234C)	-1.004	0.818	0.571	112.671	149.719	-167.908	-34.09	70.29	-114.53	21.952	4.508	-31.556	0.71304	0.48779	0.44296	-0.23938	23.3	13111	100
2025-5-25 10:15:31.278	WT901BLE68(801231B9234C)	-0.728	0.797	0.333	147.949	231.018	-126.526	-44.58	71.88	-128.18	18.816	15.386	-30.380	0.71304	0.48779	0.44296	-0.23938	23.3	13111	100
2025-5-25 10:15:31.331	WT901BLE68(801231B9234C)	-0.443	0.722	0.203	169.434	246.948	-86.365	-56.38	73.70	-143.60	18.816	15.386	-30.380	0.71304	0.48779	0.44296	-0.23938	23.3	13111	100
2025-5-25 10:15:31.331	WT901BLE68(801231B9234C)	-0.418	0.694	0.088	170.105	235.474	-50.720	-69.25	75.16	-160.11	18.816	15.386	-30.380	0.71304	0.48779	0.44296	-0.23938	23.3	13111	100
2025-5-25 10:15:31.365	WT901BLE68(801231B9234C)	-0.352	0.724	0.009	147.583	157.410	-21.729	-80.15	76.01	-174.13	18.816	15.386	-30.380	0.71304	0.48779	0.44296	-0.23938	23.3	13111	100
2025-5-25 10:15:31.365	WT901BLE68(801231B9234C)	0.036	0.770	-0.039	133.423	48.889	2.319	-84.27	76.64	179.32	18.816	15.386	-30.380	0.71304	0.48779	0.44296	-0.23938	23.3	13111	100
2025-5-25 10:15:31.411	WT901BLE68(801231B9234C)	0.378	0.748	-0.047	113.220	-36.316	23.743	-80.96	77.44	-179.17	18.816	15.386	-30.380	0.71304	0.48779	0.44296	-0.23938	23.3	13111	100
2025-5-25 10:15:31.411	WT901BLE68(801231B9234C)	0.447	0.680	-0.044	74.768	-57.617	41.321	-73.88	78.46	-173.15	18.816	15.386	-30.380	0.71304	0.48779	0.44296	-0.23938	23.3	13111	100
2025-5-25 10:15:31.457	WT901BLE68(801231B9234C)	0.299	0.638	-0.068	22.583	-22.034	75.562	-67.33	80.07	-166.72	18.816	15.386	-30.380	0.71304	0.48779	0.44296	-0.23938	23.3	13111	100
2025-5-25 10:15:31.457	WT901BLE68(801231B9234C)	-0.043	0.693	-0.102	-19.592	18.005	110.291	-62.51	82.65	-161.18	18.816	15.386	-30.380	0.71304	0.48779	0.44296	-0.23938	23.3	13111	100
2025-5-25 10:15:31.480	WT901BLE68(801231B9234C)	-0.674	0.869	-0.010	-85.205	18.982	147.339	-52.45	85.99	-149.40	18.816	15.386	-30.380	0.71304	0.48779	0.44296	-0.23938	23.3	13111	100
2025-5-25 10:15:31.480	WT901BLE68(801231B9234C)	-1.594	0.907	0.329	-175.598	-21.973	159.851	3.80	88.01	-89.74	18.816	15.386	-30.380	0.51346	0.50348	0.47073	-0.51105	23.3	13111	100
2025-5-25 10:15:31.545	WT901BLE68(801231B9234C)	-1.937	0.807	0.610	-226.868	-64.758	183.777	48.54	85.24	-40.12	18.816	15.386	-30.380	0.51346	0.50348	0.47073	-0.51105	23.3	13111	100
2025-5-25 10:15:31.545	WT901BLE68(801231B9234C)	-1.851	0.556	0.734	-193.604	-89.966	263.245	57.49	80.11	-26.42	18.816	15.386	-30.380	0.51346	0.50348	0.47073	-0.51105	23.3	13111	100
2025-5-25 10:15:31.569	WT901BLE68(801231B9234C)	-2.440	0.551	0.916	-177.246	-22.095	287.476	62.14	74.24	-17.52	18.816	15.386	-30.380	0.51346	0.50348	0.47073	-0.51105	23.3	13111	100
2025-5-25 10:15:31.569	WT901BLE68(801231B9234C)	-2.207	0.767	0.995	-169.434	104.248	237.549	68.15	69.86	-7.12	18.816	15.386	-30.380	0.51346	0.50348	0.47073	-0.51105	23.3	13111	100
2025-5-25 10:15:31.622	WT901BLE68(801231B9234C)	-1.978	0.401	0.988	-121.765	158.875	209.656	74.92	66.41	3.57	18.816	15.386	-30.380	0.51346	0.50348	0.47073	-0.51105	23.3	13111	100
2025-5-25 10:15:31.622	WT901BLE68(801231B9234C)	-1.770	0.055	0.860	-85.205	181.458	170.166	81.19	63.44	12.95	18.816	15.386	-30.380	0.51346	0.50348	0.47073	-0.51105	23.3	13111	100
2025-5-25 10:15:31.660	WT901BLE68(801231B9234C)	-1.394	-0.182	0.673	-72.632	153.015	140.259	85.92	60.85	20.34	18.816	15.386	-30.380	0.51346	0.50348	0.47073	-0.51105	23.3	13111	100
2025-5-25 10:15:31.660	WT901BLE68(801231B9234C)	-1.104	-0.288	0.463	-62.988	85.205	113.770	87.96	58.67	24.46	18.816	15.386	-30.380	0.51346	0.50348	0.47073	-0.51105	23.3	13111	100
2025-5-25 10:15:31.681	WT901BLE68(801231B9234C)	-0.869	-0.385	0.370	-61.951	28.015	96.191	87.81	56.92	25.92	18.816	15.386	-30.380	0.51346	0.50348	0.47073	-0.51105	23.3	13111	100
2025-5-25 10:15:31.681	WT901BLE68(801231B9234C)	-0.658	-0.552	0.311	-59.509	-13.367	82.764	86.34	55.51	25.63	33.222	1.568	-23.226	0.51346	0.50348	0.47073	-0.51105	23.3	13111	100
2025-5-25 10:15:31.724	WT901BLE68(801231B9234C)	-0.459	-0.741	0.289	-55.115	-38.147	72.266	84.27	54.39	24.24	33.222	1.568	-23.226	0.51346	0.50348	0.47073	-0.51105	23.3	13111	100
2025-5-25 10:15:31.724	WT901BLE68(801231B9234C)	-0.237	-0.917	0.312	-46.936	-51.758	48.950	82.16	53.66	22.23	33.222	1.568	-23.226	0.51346	0.50348	0.47073	-0.51105	23.3	13111	100
2025-5-25 10:15:31.770	WT901BLE68(801231B9234C)	-0.063	-1.075	0.268	-39.307	-62.378	4.822	80.09	53.65	19.74	33.222	1.568	-23.226	0.51346	0.50348	0.47073	-0.51105	23.3	13111	100
2025-5-25 10:15:31.770	WT901BLE68(801231B9234C)	-0.084	-1.062	0.124	-28.320	-46.143	-49.744	78.26	54.70	17.18	33.222	1.568	-23.226	0.51346	0.50348	0.47073	-0.51105	23.3	13111	100
2025-5-25 10:15:31.832	WT901BLE68(801231B9234C)	-0.269	-1.322	0.142	-32.288	-1.892	-76.050	77.28	56.82	15.42	33.222	1.568	-23.226	0.51346	0.50348	0.47073	-0.51105	23.3	13111	100
2025-5-25 10:15:31.832	WT901BLE68(801231B9234C)	-0.600	-1.087	0.159	27.710	24.963	-135.803	77.72	60.17	14.51	33.222	1.568	-23.226	0.51346	0.50348	0.47073	-0.51105	23.3	13111	100
2025-5-25 10:15:31.839	WT901BLE68(801231B9234C)	-1.116	-0.674	0.218	66.284	27.771	-179.626	79.51	64.36	14.23	33.222	1.568	-23.226	0.51346	0.50348	0.47073	-0.51105	23.3	13111	100
2025-5-25 10:15:31.839	WT901BLE68(801231B9234C)	-1.963	-0.612	0.374	84.229	-7.874	-209.167	80.66	69.08	12.85	33.222	1.568	-23.226	0.51346	0.50348	0.47073	-0.51105	23.3	13111	100
2025-5-25 10:15:31.883	WT901BLE68(801231B9234C)	-2.516	-0.553	0.706	89.355	-39.490	-222.839	79.43	73.98	8.75	33.222	1.568	-23.226	0.51346	0.50348	0.47073	-0.51105	23.3	13111	100
2025-5-25 10:15:31.883	WT901BLE68(801231B9234C)	-3.286	-0.413	0.778	61.523	-131.165	-224.060	69.14	78.43	-4.06	33.222	1.568	-23.226	0.62067	0.45023	0.49783	-0.40512	23.3	13111	100
2025-5-25 10:15:31.927	WT901BLE68(801231B9234C)	-3.407	0.041	0.979	22.095	-211.914	-249.634	39.40	80.57	-35.67	33.222	1.568	-23.226	0.62067	0.45023	0.49783	-0.40512	23.3	13111	100
2025-5-25 10:15:31.927	WT901BLE68(801231B9234C)	-2.234	0.555	0.865	-5.859	-315.002	-257.751	3.75	77.37	-72.21	33.222	1.568	-23.226	0.62067	0.45023	0.49783	-0.40512	23.3	13111	100
2025-5-25 10:15:31.972	WT901BLE68(801231B9234C)	-1.158	0.746	0.854	17.029	-319.092	-228.027	-11.05	70.33	-87.54	33.222	1.568	-23.226	0.62067	0.45023	0.49783	-0.40512	23.3	13111	100
2025-5-25 10:15:31.973	WT901BLE68(801231B9234C)	-0.775	0.970	0.870	56.763	-115.295	-192.627	-17.39	65.52	-95.20	33.222	1.568	-23.226	0.62067	0.45023	0.49783	-0.40512	23.3	13111	100
2025-5-25 10:15:32.33	WT901BLE68(801231B9234C)	-0.783	1.026	0.633	76.782	103.821	-168.396	-23.08	64.90	-102.74	33.222	1.568	-23.226	0.62067	0.45023	0.49783	-0.40512	23.3	13111	100
2025-5-25 10:15:32.33	WT901BLE68(801231B9234C)	-0.576	0.932	0.319	115.662	254.395	-145.386	-30.83	67.43	-113.16	33.222	1.568	-23.226	0.62067	0.45023	0.49783	-0.40512	23.3	13111	100
2025-5-25 10:15:32.41	WT901BLE68(801231B9234C)	-0.319	0.850	0.170	138.550	287.048	-103.577	-40.83	70.87	-126.39	33.222	1.568	-23.226	0.62067	0.45023	0.49783	-0.40512	23.3	13111	100
2025-5-25 10:15:32.41	WT901BLE68(801231B9234C)	-0.377	0.685	0.089	142.822	275.269	-53.894	-52.94	74.09	-141.63	33.222	1.568	-23.226	0.62067	0.45023	0.49783	-0.40512	23.3	13111	100
2025-5-25 10:15:32.86	WT901BLE68(801231B9234C)	-0.190	0.895	0.028	104.431	165.039	-32.593	-64.32	76.13	-155.48	33.222	1.568	-23.226	0.62067	0.45023	0.49783	-0.40512	23.3	13111	100
2025-5-25 10:15:32.87	WT901BLE68(801231B9234C)	0.287	0.849	-0.034	86.426	21.423	1.648	-67.58	76.99	-160.23	21.168	12.446	-30.478	0.62067	0.45023	0.49783	-0.40512	23.3	13111	100
2025-5-25 10:15:32.132	WT901BLE68(801231B9234C)	0.560	0.829	-0.071	66.040	-46.570	34.973	-62.40	77.78	-155.95	21.168	12.446	-30.478	0.62067	0.45023	0.49783	-0.40512	23.3	13111	100
2025-5-25 10:15:32.132	WT901BLE68(801231B9234C)	0.528	0.850	-0.110	21.240	-37.903	74.097	-54.26	78.90	-147.91	21.168	12.446	-30.478	0.62067	0.45023	0.49783	-0.40512	23.3	13111	100
2025-5-25 10:15:32.175	WT901BLE68(801231B9234C)	0.200	0.772	-0.124	-30.762	21.240	133.118	-44.91	81.30	-137.66	21.168	12.446	-30.478	0.62067	0.45023	0.49783	-0.40512	23.3	13111	100
2025-5-25 10:15:32.176	WT901BLE68(801231B9234C)	-0.490	0.842	-0.024	-78.308	54.565	191.711	-25.04	84.72	-116.02	21.168	12.446	-30.478	0.62067	0.45023	0.49783	-0.40512	23.3	13111	100
2025-5-25 10:15:32.232	WT901BLE68(801231B9234C)	-2.054	1.015	0.119	-143.250	40.283	242.188	33.12	85.70	-54.90	21.168	12.446	-30.478	0.62067	0.45023	0.49783	-0.40512	23.3	13111	100
2025-5-25 10:15:32.232	WT901BLE68(801231B9234C)	-2.679	1.285	0.572	-218.018	6.592	269.775	63.87	81.37	-19.69	21.168	12.446	-30.478	0.62067	0.45023	0.49783	-0.40512	23.3	13111	100
2025-5-25 10:15:32.244	WT901BLE68(801231B9234C)	-2.471	0.926	1.104	-186.584	-49.438	360.352	70.79	74.64	-8.07	21.168	12.446	-30.478	0.62067	0.45023	0.49783	-0.40512	23.3	13111	100
2025-5-25 10:15:32.244	WT901BLE68(801231B9234C)	-2.202	0.865	1.226	-130.676	-30.518	286.194	70.79	67.88	-4.54	21.168	12.446	-30.478	0.62067	0.45023	0.49783	-0.40512	23.3	13111	100
2025-5-25 10:15:32.289	WT901BLE68(801231B9234C)	-2.009	0.678	0.936	-123.047	147.644	245.728	74.60	63.29	2.83	21.168	12.446	-30.478	0.62067	0.45023	0.49783	-0.40512	23.3	13111	100
2025-5-25 10:15:32.289	WT901BLE68(801231B9234C)	-2.044	0.057	0.667	-85.693	247.498	218.262	81.58	59.60	13.49	21.168	12.446	-30.478	0.68796	0.53171	0.44379	-0.21658	23.3	13111	100
2025-5-25 10:15:32.333	WT901BLE68(801231B9234C)	-1.964	-0.335	0.532	-69.580	261.353	193.970	88.35	56.02	23.57	21.168	12.446	-30.478	0.68796	0.53171	0.44379	-0.21658	23.3	13111	100
2025-5-25 10:15:32.333	WT901BLE68(801231B9234C)	-1.702	-0.519	0.453	-68.115	160.400	141.663	92.21	52.92	30.22	21.168	12.446	-30.478	0.68796	0.53171	0.44379	-0.21658	23.3	13111	100
2025-5-25 10:15:32.378	WT901BLE68(801231B9234C)	-1.136	-0.526	0.442	-61.157	15.259	83.557	92.19	51.11	31.84	21.168	12.446	-30.478	0.68796	0.53171	0.44379	-0.21658	23.3	13111	100
2025-5-25 10:15:32.378	WT901BLE68(801231B9234C)	-0.681	-0.530	0.444	-53.223	-71.533	45.776	89.74	50.43	29.90	21.168	12.446	-30.478	0.68796	0.53171	0.44379	-0.21658	23.3	13111	100
2025-5-25 10:15:32.429	WT901BLE68(801231B9234C)	-0.348	-0.616	0.381	-51.575	-89.905	15.442	86.61	50.36	26.66	21.168	12.446	-30.478	0.68796	0.53171	0.44379	-0.21658	23.3	13111	100
2025-5-25 10:15:32.429	WT901BLE68(801231B9234C)	-0.128	-0.725	0.328	-49.194	-76.599	-11.658	83.76	50.81	23.45	21.168	12.446	-30.478	0.68796	0.53171	0.44379	-0.21658	23.3	13111	100
2025-5-25 10:15:32.449	WT901BLE68(801231B9234C)	-0.010	-0.822	0.271	-49.988	-61.340	-35.339	81.36	51.75	20.60	21.168	12.446	-30.478	0.68796	0.53171	0.44379	-0.21658	23.3	13111	100
2025-5-25 10:15:32.450	WT901BLE68(801231B9234C)	0.089	-0.926	0.174	-44.067	-55.115	-61.707	79.15	53.21	17.87	21.168	12.446	-30.478	0.68796	0.53171	0.44379	-0.21658	23.3	13111	100
2025-5-25 10:15:32.490	WT901BLE68(801231B9234C)	0.075	-0.888	0.031	-29.785	-52.795	-90.515	77.07	55.26	15.03	21.168	12.446	-30.478	0.68796	0.53171	0.44379	-0.21658	23.3	13111	100
2025-5-25 10:15:32.491	WT901BLE68(801231B9234C)	-0.090	-0.789	-0.019	-10.742	-31.250	-90.271	75.36	57.74	12.29	33.516	0.588	-23.030	0.68796	0.53171	0.44379	-0.21658	23.3	13111	100
2025-5-25 10:15:32.534	WT901BLE68(801231B9234C)	-0.555	-0.854	0.084	19.226	-1.526	-129.639	74.44	60.88	10.12	33.516	0.588	-23.030	0.68796	0.53171	0.44379	-0.21658	23.3	13111	100
2025-5-25 10:15:32.534	WT901BLE68(801231B9234C)	-1.524	-0.626	0.213	57.739	27.710	-159.851	75.31	64.67	9.10	33.516	0.588	-23.030	0.68796	0.53171	0.44379	-0.21658	23.3	13111	100
2025-5-25 10:15:32.580	WT901BLE68(801231B9234C)	-2.865	-0.586	0.586	69.946	48.279	-195.068	77.24	69.13	8.78	33.516	0.588	-23.030	0.68796	0.53171	0.44379	-0.21658	23.3	13111	100
2025-5-25 10:15:32.580	WT901BLE68(801231B9234C)	-3.226	-0.642	0.807	52.429	-34.241	-224.976	77.42	74.06	6.87	33.516	0.588	-23.030	0.68796	0.53171	0.44379	-0.21658	23.3	13111	100
2025-5-25 10:15:32.628	WT901BLE68(801231B9234C)	-3.841	0.031	0.909	34.485	-189.087	-214.417	62.01	77.75	-10.59	33.516	0.588	-23.030	0.68796	0.53171	0.44379	-0.21658	23.3	13111	100
2025-5-25 10:15:32.628	WT901BLE68(801231B9234C)	-2.608	0.434	0.881	-11.902	-274.597	-272.522	29.28	78.28	-44.46	33.516	0.588	-23.030	0.68796	0.53171	0.44379	-0.21658	23.3	13111	100
2025-5-25 10:15:32.649	WT901BLE68(801231B9234C)	-1.255	0.663	0.646	24.963	-311.279	-250.916	2.27	73.51	-72.16	33.516	0.588	-23.030	0.68796	0.53171	0.44379	-0.21658	23.3	13111	100
2025-5-25 10:15:32.649	WT901BLE68(801231B9234C)	-0.943	1.125	0.613	69.336	-87.280	-235.168	-10.05	69.59	-86.33	33.516	0.588	-23.030	0.68796	0.53171	0.44379	-0.21658	23.3	13111	100
2025-5-25 10:15:32.693	WT901BLE68(801231B9234C)	-1.125	1.002	0.505	84.167	170.898	-203.857	-20.17	70.08	-98.58	33.516	0.588	-23.030	0.68796	0.53171	0.44379	-0.21658	23.3	13111	100
2025-5-25 10:15:32.693	WT901BLE68(801231B9234C)	-1.034	0.878	0.377	117.859	292.542	-178.223	-34.35	73.22	-115.45	33.516	0.588	-23.030	0.52243	0.37448	0.51923	-0.56314	23.3	13111	100
2025-5-25 10:15:32.737	WT901BLE68(801231B9234C)	-0.669	0.639	0.284	162.720	272.400	-123.474	-51.86	75.71	-136.21	33.516	0.588	-23.030	0.52243	0.37448	0.51923	-0.56314	23.3	13111	100
2025-5-25 10:15:32.737	WT901BLE68(801231B9234C)	-0.320	1.202	0.128	162.781	171.509	-78.247	-65.74	76.61	-153.54	33.516	0.588	-23.030	0.52243	0.37448	0.51923	-0.56314	23.3	13111	100
2025-5-25 10:15:32.783	WT901BLE68(801231B9234C)	0.099	1.159	0.086	142.639	62.500	-47.119	-71.65	76.77	-162.25	33.516	0.588	-23.030	0.52243	0.37448	0.51923	-0.56314	23.3	13111	100
2025-5-25 10:15:32.783	WT901BLE68(801231B9234C)	0.459	1.002	0.019	127.930	-23.010	-30.273	-70.11	76.62	-162.84	33.516	0.588	-23.030	0.52243	0.37448	0.51923	-0.56314	23.3	13111	100
2025-5-25 10:15:32.807	WT901BLE68(801231B9234C)	0.503	0.859	-0.038	97.473	-63.171	2.136	-64.02	76.63	-158.28	33.516	0.588	-23.030	0.52243	0.37448	0.51923	-0.56314	23.3	13111	100
2025-5-25 10:15:32.807	WT901BLE68(801231B9234C)	0.456	0.772	-0.107	47.058	-34.668	53.772	-57.19	77.40	-152.11	33.516	0.588	-23.030	0.52243	0.37448	0.51923	-0.56314	23.3	13111	100
2025-5-25 10:15:32.850	WT901BLE68(801231B9234C)	0.306	0.575	-0.070	14.526	3.113	115.906	-49.78	79.54	-144.51	33.516	0.588	-23.030	0.52243	0.37448	0.51923	-0.56314	23.3	13111	100
2025-5-25 10:15:32.850	WT901BLE68(801231B9234C)	-0.082	0.737	0.028	-12.634	8.057	165.894	-35.02	82.44	-129.09	33.516	0.588	-23.030	0.52243	0.37448	0.51923	-0.56314	23.3	13111	100
2025-5-25 10:15:32.896	WT901BLE68(801231B9234C)	-0.687	0.905	0.231	-69.092	-19.836	199.463	-1.80	84.08	-94.30	33.516	0.588	-23.030	0.52243	0.37448	0.51923	-0.56314	23.3	13111	100
2025-5-25 10:15:32.896	WT901BLE68(801231B9234C)	-1.512	0.937	0.501	-139.099	-66.223	214.172	31.29	81.95	-58.24	23.422	6.272	-30.870	0.52243	0.37448	0.51923	-0.56314	23.3	13111	100
2025-5-25 10:15:32.942	WT901BLE68(801231B9234C)	-2.066	0.814	0.743	-154.358	-96.375	252.930	44.84	77.31	-40.89	23.422	6.272	-30.870	0.52243	0.37448	0.51923	-0.56314	23.3	13111	100
2025-5-25 10:15:32.942	WT901BLE68(801231B9234C)	-2.644	0.602	1.174	-123.352	-84.595	324.402	52.17	71.30	-30.03	23.422	6.272	-30.870	0.52243	0.37448	0.51923	-0.56314	23.3	13111	100
2025-5-25 10:15:32.985	WT901BLE68(801231B9234C)	-2.710	0.830	1.665	-138.367	-73.364	282.776	55.49	64.96	-23.16	23.422	6.272	-30.870	0.52243	0.37448	0.51923	-0.56314	23.3	13111	100
2025-5-25 10:15:32.986	WT901BLE68(801231B9234C)	-1.556	0.836	1.496	-105.042	-47.241	216.919	55.90	60.35	-19.51	23.422	6.272	-30.870	0.52243	0.37448	0.51923	-0.56314	23.3	13111	100
2025-5-25 10:15:33.9	WT901BLE68(801231B9234C)	-1.415	0.249	1.119	-62.012	67.566	176.697	58.12	57.16	-14.86	23.422	6.272	-30.870	0.52243	0.37448	0.51923	-0.56314	23.3	13111	100
2025-5-25 10:15:33.9	WT901BLE68(801231B9234C)	-1.276	-0.104	0.891	-54.199	177.185	138.123	62.52	55.90	-7.91	23.422	6.272	-30.870	0.52243	0.37448	0.51923	-0.56314	23.3	13111	100
2025-5-25 10:15:33.52	WT901BLE68(801231B9234C)	-1.021	-0.246	0.632	-39.246	186.035	119.995	67.57	55.23	-0.38	23.422	6.272	-30.870	0.52243	0.37448	0.51923	-0.56314	23.3	13111	100
2025-5-25 10:15:33.52	WT901BLE68(801231B9234C)	-0.965	-0.292	0.456	-35.095	158.020	111.938	71.91	54.33	6.00	23.422	6.272	-30.870	0.52243	0.37448	0.51923	-0.56314	23.3	13111	100
2025-5-25 10:15:33.97	WT901BLE68(801231B9234C)	-0.979	-0.454	0.376	-52.795	110.779	93.933	74.63	53.35	10.67	23.422	6.272	-30.870	0.52243	0.37448	0.51923	-0.56314	23.3	13111	100
2025-5-25 10:15:33.98	WT901BLE68(801231B9234C)	-0.651	-0.578	0.318	-56.519	24.841	72.937	75.02	52.43	12.60	23.422	6.272	-30.870	0.74106	0.50705	0.40012	-0.18314	23.3	13111	100
2025-5-25 10:15:33.142	WT901BLE68(801231B9234C)	-0.236	-0.573	0.275	-50.110	-29.785	66.345	73.77	51.47	12.11	23.422	6.272	-30.870	0.74106	0.50705	0.40012	-0.18314	23.3	13111	100
2025-5-25 10:15:33.142	WT901BLE68(801231B9234C)	0.031	-0.780	0.302	-58.350	-37.109	44.922	71.99	50.71	10.78	23.422	6.272	-30.870	0.74106	0.50705	0.40012	-0.18314	23.3	13111	100
2025-5-25 10:15:33.188	WT901BLE68(801231B9234C)	0.143	-0.980	0.281	-62.561	-25.879	-7.690	70.14	50.88	9.23	23.422	6.272	-30.870	0.74106	0.50705	0.40012	-0.18314	23.3	13111	100
2025-5-25 10:15:33.189	WT901BLE68(801231B9234C)	-0.115	-0.958	0.168	-57.251	-5.249	-60.547	68.40	52.27	7.54	23.422	6.272	-30.870	0.74106	0.50705	0.40012	-0.18314	23.3	13111	100
2025-5-25 10:15:33.232	WT901BLE68(801231B9234C)	-0.527	-0.947	0.131	-41.870	36.804	-101.501	67.35	54.84	6.45	23.422	6.272	-30.870	0.74106	0.50705	0.40012	-0.18314	23.3	13111	100
2025-5-25 10:15:33.233	WT901BLE68(801231B9234C)	-1.044	-0.914	0.203	-6.958	46.997	-138.672	67.13	58.33	5.70	23.422	6.272	-30.870	0.74106	0.50705	0.40012	-0.18314	23.3	13111	100
2025-5-25 10:15:33.255	WT901BLE68(801231B9234C)	-1.860	-0.843	0.363	32.593	13.550	-178.345	66.57	62.39	3.69	23.422	6.272	-30.870	0.74106	0.50705	0.40012	-0.18314	23.3	13111	100
2025-5-25 10:15:33.255	WT901BLE68(801231B9234C)	-2.535	-0.708	0.779	44.067	-41.321	-222.412	63.50	66.73	-1.59	23.422	6.272	-30.870	0.74106	0.50705	0.40012	-0.18314	23.3	13111	100
2025-5-25 10:15:33.300	WT901BLE68(801231B9234C)	-2.922	-0.491	1.009	2.869	-199.219	-250.061	51.90	70.11	-15.27	23.422	6.272	-30.870	0.74106	0.50705	0.40012	-0.18314	23.3	13111	100
2025-5-25 10:15:33.301	WT901BLE68(801231B9234C)	-2.625	-0.019	1.508	-44.189	-333.679	-257.813	30.21	69.37	-38.31	23.422	6.272	-30.870	0.74106	0.50705	0.40012	-0.18314	23.3	13111	100
2025-5-25 10:15:33.345	WT901BLE68(801231B9234C)	-1.703	0.557	1.542	-51.147	-304.993	-256.226	11.14	65.30	-57.90	25.676	11.662	-27.930	0.74106	0.50705	0.40012	-0.18314	23.3	13111	100
2025-5-25 10:15:33.345	WT901BLE68(801231B9234C)	-1.277	0.709	1.597	-39.734	-170.898	-229.980	0.09	61.23	-69.25	25.676	11.662	-27.930	0.74106	0.50705	0.40012	-0.18314	23.3	13111	100
2025-5-25 10:15:33.390	WT901BLE68(801231B9234C)	-0.824	0.893	1.323	-5.859	-0.183	-218.506	-8.02	59.71	-77.80	25.676	11.662	-27.930	0.74106	0.50705	0.40012	-0.18314	23.3	13111	100
2025-5-25 10:15:33.390	WT901BLE68(801231B9234C)	-0.721	0.966	0.914	31.738	137.817	-212.219	-15.12	60.62	-86.21	25.676	11.662	-27.930	0.74106	0.50705	0.40012	-0.18314	23.3	13111	100
2025-5-25 10:15:33.433	WT901BLE68(801231B9234C)	-0.516	0.784	0.577	77.454	239.685	-205.200	-23.23	63.24	-96.48	25.676	11.662	-27.930	0.74106	0.50705	0.40012	-0.18314	23.3	13111	100
2025-5-25 10:15:33.433	WT901BLE68(801231B9234C)	-0.190	0.738	0.361	142.212	272.461	-173.767	-32.00	66.28	-108.51	25.676	11.662	-27.930	0.74106	0.50705	0.40012	-0.18314	23.3	13111	100
2025-5-25 10:15:33.457	WT901BLE68(801231B9234C)	-0.039	0.427	0.184	160.645	303.101	-121.033	-41.17	69.67	-121.61	25.676	11.662	-27.930	0.74106	0.50705	0.40012	-0.18314	23.3	13111	100
2025-5-25 10:15:33.457	WT901BLE68(801231B9234C)	-0.203	0.923	-0.016	144.470	281.677	-90.149	-53.04	72.79	-137.02	25.676	11.662	-27.930	0.74106	0.50705	0.40012	-0.18314	23.3	13111	100
2025-5-25 10:15:33.503	WT901BLE68(801231B9234C)	-0.016	1.025	-0.124	112.793	140.137	-54.321	-62.79	74.35	-149.35	25.676	11.662	-27.930	0.74106	0.50705	0.40012	-0.18314	23.3	13111	100
2025-5-25 10:15:33.504	WT901BLE68(801231B9234C)	0.333	0.904	-0.119	74.646	-19.287	-14.404	-63.41	74.87	-151.36	25.676	11.662	-27.930	0.74106	0.50705	0.40012	-0.18314	23.3	13111	100
2025-5-25 10:15:33.549	WT901BLE68(801231B9234C)	0.479	0.694	-0.166	59.631	-73.608	37.598	-56.66	75.25	-145.28	25.676	11.662	-27.930	0.48166	0.39926	0.51666	-0.58441	23.3	13111	100
2025-5-25 10:15:33.550	WT901BLE68(801231B9234C)	0.433	0.717	-0.213	25.146	-48.950	107.056	-47.02	76.48	-135.66	25.676	11.662	-27.930	0.48166	0.39926	0.51666	-0.58441	23.3	13111	100
2025-5-25 10:15:33.572	WT901BLE68(801231B9234C)	0.189	0.749	-0.115	-9.949	-6.470	183.716	-33.04	78.89	-121.04	25.676	11.662	-27.930	0.48166	0.39926	0.51666	-0.58441	23.3	13111	100
2025-5-25 10:15:33.572	WT901BLE68(801231B9234C)	-0.660	0.714	0.152	-50.293	16.968	250.977	-6.70	81.19	-93.25	25.676	11.662	-27.930	0.48166	0.39926	0.51666	-0.58441	23.3	13111	100
2025-5-25 10:15:33.629	WT901BLE68(801231B9234C)	-2.527	1.009	0.527	-123.718	7.263	283.081	29.22	80.36	-54.74	25.676	11.662	-27.930	0.48166	0.39926	0.51666	-0.58441	23.3	13111	100
2025-5-25 10:15:33.629	WT901BLE68(801231B9234C)	-2.791	1.247	0.718	-186.462	-61.584	310.181	47.52	75.78	-32.16	25.676	11.662	-27.930	0.48166	0.39926	0.51666	-0.58441	23.3	13111	100
2025-5-25 10:15:33.660	WT901BLE68(801231B9234C)	-2.098	0.622	1.470	-99.548	-276.428	356.018	50.27	67.63	-26.04	25.676	11.662	-27.930	0.48166	0.39926	0.51666	-0.58441	23.3	13111	100
2025-5-25 10:15:33.660	WT901BLE68(801231B9234C)	-1.555	1.016	1.972	-41.138	-219.727	271.729	48.94	59.30	-25.88	25.676	11.662	-27.930	0.48166	0.39926	0.51666	-0.58441	23.3	13111	100
2025-5-25 10:15:33.706	WT901BLE68(801231B9234C)	-1.449	0.680	1.686	-22.644	37.537	212.830	51.28	54.85	-21.88	25.676	11.662	-27.930	0.48166	0.39926	0.51666	-0.58441	23.3	13111	100
2025-5-25 10:15:33.706	WT901BLE68(801231B9234C)	-1.598	0.180	1.286	-10.681	205.750	162.842	57.00	53.57	-13.94	25.676	11.662	-27.930	0.48166	0.39926	0.51666	-0.58441	23.3	13111	100
2025-5-25 10:15:33.750	WT901BLE68(801231B9234C)	-1.396	-0.118	0.948	2.014	244.873	138.000	64.02	53.30	-4.65	19.992	6.272	-31.850	0.48166	0.39926	0.51666	-0.58441	23.3	13111	100
2025-5-25 10:15:33.750	WT901BLE68(801231B9234C)	-1.078	-0.252	0.751	15.564	197.815	127.380	70.29	52.55	3.36	19.992	6.272	-31.850	0.48166	0.39926	0.51666	-0.58441	23.3	13111	100
2025-5-25 10:15:33.775	WT901BLE68(801231B9234C)	-0.889	-0.306	0.576	10.742	149.353	116.394	74.87	51.34	9.23	19.992	6.272	-31.850	0.48166	0.39926	0.51666	-0.58441	23.3	13111	100
2025-5-25 10:15:33.775	WT901BLE68(801231B9234C)	-0.807	-0.440	0.443	-12.634	120.544	102.356	77.88	50.06	13.56	19.992	6.272	-31.850	0.48166	0.39926	0.51666	-0.58441	23.3	13111	100
2025-5-25 10:15:33.832	WT901BLE68(801231B9234C)	-0.611	-0.591	0.392	-27.893	72.083	86.365	79.36	48.93	16.31	19.992	6.272	-31.850	0.48166	0.39926	0.51666	-0.58441	23.3	13111	100
2025-5-25 10:15:33.832	WT901BLE68(801231B9234C)	-0.260	-0.693	0.415	-31.799	13.489	62.012	79.40	48.15	17.01	19.992	6.272	-31.850	0.48166	0.39926	0.51666	-0.58441	23.3	13111	100
2025-5-25 10:15:33.863	WT901BLE68(801231B9234C)	0.005	-0.820	0.433	-37.109	-18.555	31.677	78.65	47.86	16.16	19.992	6.272	-31.850	0.48166	0.39926	0.51666	-0.58441	23.3	13111	100
2025-5-25 10:15:33.863	WT901BLE68(801231B9234C)	0.140	-1.000	0.391	-41.687	-33.447	-20.630	77.44	48.43	14.53	19.992	6.272	-31.850	0.48166	0.39926	0.51666	-0.58441	23.3	13111	100
2025-5-25 10:15:33.909	WT901BLE68(801231B9234C)	-0.010	-0.953	0.269	-38.513	-35.278	-66.162	75.95	50.02	12.37	19.992	6.272	-31.850	0.48166	0.39926	0.51666	-0.58441	23.3	13111	100
2025-5-25 10:15:33.909	WT901BLE68(801231B9234C)	-0.356	-0.858	0.239	-29.602	-3.601	-97.351	74.85	52.40	10.62	19.992	6.272	-31.850	0.48166	0.39926	0.51666	-0.58441	23.3	13111	100
2025-5-25 10:15:33.952	WT901BLE68(801231B9234C)	-0.676	-0.740	0.325	-3.174	16.235	-139.954	74.53	55.68	9.40	19.992	6.272	-31.850	0.72372	0.50815	0.40994	-0.22327	23.3	13111	100
2025-5-25 10:15:33.952	WT901BLE68(801231B9234C)	-1.130	-0.680	0.404	22.888	2.808	-184.998	74.23	59.86	7.66	19.992	6.272	-31.850	0.72372	0.50815	0.40994	-0.22327	23.3	13111	100
2025-5-25 10:15:33.977	WT901BLE68(801231B9234C)	-2.216	-0.668	0.633	46.875	-9.888	-213.074	73.16	64.55	4.53	19.992	6.272	-31.850	0.72372	0.50815	0.40994	-0.22327	23.3	13111	100
2025-5-25 10:15:33.977	WT901BLE68(801231B9234C)	-2.691	-0.656	1.064	27.222	-36.194	-239.868	69.97	69.56	-0.72	19.992	6.272	-31.850	0.72372	0.50815	0.40994	-0.22327	23.3	13111	100
2025-5-25 10:15:34.28	WT901BLE68(801231B9234C)	-3.558	-0.230	1.240	3.662	-112.305	-222.900	59.94	73.71	-12.41	19.992	6.272	-31.850	0.72372	0.50815	0.40994	-0.22327	23.3	13111	100
2025-5-25 10:15:34.28	WT901BLE68(801231B9234C)	-3.109	0.258	1.235	-39.612	-189.575	-246.094	39.07	75.57	-34.09	19.992	6.272	-31.850	0.72372	0.50815	0.40994	-0.22327	23.3	13111	100
2025-5-25 10:15:34.65	WT901BLE68(801231B9234C)	-2.189	0.628	1.078	-37.354	-284.119	-216.309	15.29	73.20	-57.98	19.992	6.272	-31.850	0.72372	0.50815	0.40994	-0.22327	23.3	13111	100
2025-5-25 10:15:34.65	WT901BLE68(801231B9234C)	-1.088	0.792	0.968	3.601	-253.113	-201.660	0.78	68.15	-72.71	19.992	6.272	-31.850	0.72372	0.50815	0.40994	-0.22327	23.3	13111	100
2025-5-25 10:15:34.111	WT901BLE68(801231B9234C)	-0.757	1.077	0.704	55.542	-51.453	-184.387	-6.74	65.33	-81.50	19.992	6.272	-31.850	0.72372	0.50815	0.40994	-0.22327	23.3	13111	100
2025-5-25 10:15:34.111	WT901BLE68(801231B9234C)	-0.671	1.111	0.334	100.342	196.289	-181.396	-13.30	66.84	-90.26	19.992	6.272	-31.850	0.72372	0.50815	0.40994	-0.22327	23.3	13111	100
2025-5-25 10:15:34.155	WT901BLE68(801231B9234C)	-0.636	0.450	0.146	114.136	314.392	-173.889	-22.98	71.38	-102.68	16.758	15.582	-29.498	0.72372	0.50815	0.40994	-0.22327	23.3	13111	100
2025-5-25 10:15:34.156	WT901BLE68(801231B9234C)	-0.634	0.778	0.028	162.659	306.580	-85.754	-35.18	76.26	-118.21	16.758	15.582	-29.498	0.72372	0.50815	0.40994	-0.22327	23.3	13111	100
2025-5-25 10:15:34.180	WT901BLE68(801231B9234C)	-0.467	0.814	0.092	147.583	164.612	-64.514	-48.63	78.82	-134.59	16.758	15.582	-29.498	0.72372	0.50815	0.40994	-0.22327	23.3	13111	100
2025-5-25 10:15:34.180	WT901BLE68(801231B9234C)	0.037	0.856	0.096	138.855	3.540	-58.105	-53.01	79.03	-141.48	16.758	15.582	-29.498	0.72372	0.50815	0.40994	-0.22327	23.3	13111	100
2025-5-25 10:15:34.231	WT901BLE68(801231B9234C)	0.437	0.860	-0.023	110.291	-96.802	-48.828	-47.78	77.80	-138.11	16.758	15.582	-29.498	0.72372	0.50815	0.40994	-0.22327	23.3	13111	100
2025-5-25 10:15:34.231	WT901BLE68(801231B9234C)	0.555	0.765	-0.122	125.305	-89.172	-42.236	-41.28	76.18	-133.21	16.758	15.582	-29.498	0.72372	0.50815	0.40994	-0.22327	23.3	13111	100
2025-5-25 10:15:34.267	WT901BLE68(801231B9234C)	0.439	0.714	-0.183	101.013	-58.289	-9.521	-36.06	75.31	-129.55	16.758	15.582	-29.498	0.72372	0.50815	0.40994	-0.22327	23.3	13111	100
2025-5-25 10:15:34.267	WT901BLE68(801231B9234C)	0.270	0.827	-0.226	57.312	3.052	51.453	-30.38	75.90	-124.79	16.758	15.582	-29.498	0.72372	0.50815	0.40994	-0.22327	23.3	13111	100
2025-5-25 10:15:34.337	WT901BLE68(801231B9234C)	-0.021	0.765	-0.152	-0.244	47.852	118.896	-21.82	77.99	-116.01	16.758	15.582	-29.498	0.72372	0.50815	0.40994	-0.22327	23.3	13111	100
2025-5-25 10:15:34.337	WT901BLE68(801231B9234C)	-0.589	0.734	0.007	-42.969	60.730	177.307	-4.83	80.39	-97.86	16.758	15.582	-29.498	0.72372	0.50815	0.40994	-0.22327	23.3	13111	100
2025-5-25 10:15:34.337	WT901BLE68(801231B9234C)	-1.804	0.809	0.272	-97.961	53.284	228.333	23.89	80.99	-66.89	16.758	15.582	-29.498	0.55530	0.48605	0.43616	-0.51480	23.3	13111	100
2025-5-25 10:15:34.337	WT901BLE68(801231B9234C)	-2.671	0.981	0.681	-160.095	38.696	259.277	48.18	78.44	-38.97	16.758	15.582	-29.498	0.55530	0.48605	0.43616	-0.51480	23.3	13111	100
2025-5-25 10:15:34.382	WT901BLE68(801231B9234C)	-2.430	0.841	1.200	-149.841	-73.547	321.411	58.44	72.95	-24.69	16.758	15.582	-29.498	0.55530	0.48605	0.43616	-0.51480	23.3	13111	100
2025-5-25 10:15:34.382	WT901BLE68(801231B9234C)	-1.979	0.926	1.585	-103.333	-128.723	270.325	58.60	66.34	-21.62	16.758	15.582	-29.498	0.55530	0.48605	0.43616	-0.51480	23.3	13111	100
2025-5-25 10:15:34.428	WT901BLE68(801231B9234C)	-1.678	0.783	1.456	-82.947	24.231	238.647	60.15	61.47	-17.42	16.758	15.582	-29.498	0.55530	0.48605	0.43616	-0.51480	23.3	13111	100
2025-5-25 10:15:34.428	WT901BLE68(801231B9234C)	-1.778	0.283	1.286	-61.096	176.941	201.416	65.69	58.61	-8.98	16.758	15.582	-29.498	0.55530	0.48605	0.43616	-0.51480	23.3	13111	100
2025-5-25 10:15:34.470	WT901BLE68(801231B9234C)	-1.564	-0.006	1.002	-41.809	229.126	166.138	72.55	56.75	0.74	16.758	15.582	-29.498	0.55530	0.48605	0.43616	-0.51480	23.3	13111	100
2025-5-25 10:15:34.470	WT901BLE68(801231B9234C)	-1.292	-0.187	0.785	-24.170	199.463	142.517	78.48	54.89	9.03	16.758	15.582	-29.498	0.55530	0.48605	0.43616	-0.51480	23.3	13111	100
2025-5-25 10:15:34.531	WT901BLE68(801231B9234C)	-1.083	-0.280	0.610	-32.227	149.292	111.145	82.41	53.16	14.91	16.758	15.582	-29.498	0.55530	0.48605	0.43616	-0.51480	23.3	13111	100
2025-5-25 10:15:34.532	WT901BLE68(801231B9234C)	-0.832	-0.371	0.488	-44.800	86.548	81.848	84.10	51.82	18.33	16.758	15.582	-29.498	0.55530	0.48605	0.43616	-0.51480	23.3	13111	100
2025-5-25 10:15:34.538	WT901BLE68(801231B9234C)	-0.473	-0.425	0.396	-46.326	25.757	60.730	84.00	50.93	19.48	29.008	-0.294	-24.304	0.55530	0.48605	0.43616	-0.51480	23.3	13111	100
2025-5-25 10:15:34.538	WT901BLE68(801231B9234C)	-0.159	-0.470	0.359	-44.495	-7.019	43.884	82.93	50.38	19.10	29.008	-0.294	-24.304	0.55530	0.48605	0.43616	-0.51480	23.3	13111	100
2025-5-25 10:15:34.582	WT901BLE68(801231B9234C)	0.013	-0.596	0.328	-45.227	-8.667	20.752	81.76	50.31	18.13	29.008	-0.294	-24.304	0.55530	0.48605	0.43616	-0.51480	23.3	13111	100
2025-5-25 10:15:34.583	WT901BLE68(801231B9234C)	0.057	-0.800	0.339	-44.983	6.836	-14.038	81.01	50.93	17.31	29.008	-0.294	-24.304	0.55530	0.48605	0.43616	-0.51480	23.3	13111	100
2025-5-25 10:15:34.632	WT901BLE68(801231B9234C)	0.050	-0.933	0.352	-34.302	26.306	-55.786	80.93	52.47	16.98	29.008	-0.294	-24.304	0.55530	0.48605	0.43616	-0.51480	23.3	13111	100
2025-5-25 10:15:34.632	WT901BLE68(801231B9234C)	-0.016	-0.901	0.313	-17.761	53.345	-80.688	81.88	54.76	17.51	29.008	-0.294	-24.304	0.55530	0.48605	0.43616	-0.51480	23.3	13111	100
2025-5-25 10:15:34.672	WT901BLE68(801231B9234C)	-0.211	-0.820	0.246	2.014	67.505	-100.952	84.01	57.56	19.00	29.008	-0.294	-24.304	0.55530	0.48605	0.43616	-0.51480	23.3	13111	100
2025-5-25 10:15:34.672	WT901BLE68(801231B9234C)	-0.669	-0.710	0.162	24.536	56.335	-122.498	86.96	60.75	20.90	29.008	-0.294	-24.304	0.55530	0.48605	0.43616	-0.51480	23.3	13111	100
2025-5-25 10:15:34.729	WT901BLE68(801231B9234C)	-2.038	-0.645	0.174	48.584	26.306	-149.048	90.20	64.32	22.52	29.008	-0.294	-24.304	0.55530	0.48605	0.43616	-0.51480	23.3	13111	100
2025-5-25 10:15:34.729	WT901BLE68(801231B9234C)	-3.494	-0.644	0.498	51.575	-16.663	-195.984	92.47	68.58	22.76	29.008	-0.294	-24.304	0.55530	0.48605	0.43616	-0.51480	23.3	13111	100
2025-5-25 10:15:34.741	WT901BLE68(801231B9234C)	-3.239	-0.399	0.813	38.635	-222.778	-211.975	88.11	73.34	16.27	29.008	-0.294	-24.304	0.63052	0.48929	0.49490	-0.34351	23.3	13111	100
2025-5-25 10:15:34.741	WT901BLE68(801231B9234C)	-2.704	0.535	0.676	21.790	-407.959	-164.551	60.48	75.34	-13.75	29.008	-0.294	-24.304	0.63052	0.48929	0.49490	-0.34351	23.3	13111	100
2025-5-25 10:15:34.785	WT901BLE68(801231B9234C)	-1.581	0.624	0.828	12.939	-368.774	-212.341	31.10	72.86	-44.51	29.008	-0.294	-24.304	0.63052	0.48929	0.49490	-0.34351	23.3	13111	100
2025-5-25 10:15:34.786	WT901BLE68(801231B9234C)	-1.284	1.106	0.744	84.412	-185.852	-215.088	14.52	69.70	-63.20	29.008	-0.294	-24.304	0.63052	0.48929	0.49490	-0.34351	23.3	13111	100
2025-5-25 10:15:34.832	WT901BLE68(801231B9234C)	-1.357	1.201	0.658	92.651	66.406	-194.519	5.77	70.03	-74.26	29.008	-0.294	-24.304	0.63052	0.48929	0.49490	-0.34351	23.3	13111	100
2025-5-25 10:15:34.832	WT901BLE68(801231B9234C)	-1.085	0.903	0.471	128.662	192.688	-166.565	-1.64	73.37	-84.13	29.008	-0.294	-24.304	0.63052	0.48929	0.49490	-0.34351	23.3	13111	100
2025-5-25 10:15:34.875	WT901BLE68(801231B9234C)	-0.644	0.676	0.297	167.664	199.280	-136.841	-9.50	77.16	-95.13	29.008	-0.294	-24.304	0.63052	0.48929	0.49490	-0.34351	23.3	13111	100
2025-5-25 10:15:34.875	WT901BLE68(801231B9234C)	-0.276	0.827	0.206	187.134	194.031	-81.055	-17.82	80.57	-106.97	29.008	-0.294	-24.304	0.63052	0.48929	0.49490	-0.34351	23.3	13111	100
2025-5-25 10:15:34.929	WT901BLE68(801231B9234C)	-0.123	0.749	0.112	178.284	192.688	-57.495	-31.09	83.75	-123.60	29.008	-0.294	-24.304	0.63052	0.48929	0.49490	-0.34351	23.3	13111	100
2025-5-25 10:15:34.929	WT901BLE68(801231B9234C)	-0.032	0.786	-0.020	152.039	148.621	-38.574	-55.11	85.97	-150.47	29.008	-0.294	-24.304	0.63052	0.48929	0.49490	-0.34351	23.3	13111	100
2025-5-25 10:15:34.945	WT901BLE68(801231B9234C)	0.235	0.864	-0.086	121.643	60.547	-22.339	-77.27	86.71	-174.79	23.030	7.448	-25.774	0.63052	0.48929	0.49490	-0.34351	23.3	13111	100
2025-5-25 10:15:34.945	WT901BLE68(801231B9234C)	0.407	0.757	-0.037	81.604	-15.137	-12.268	-79.21	86.99	-178.06	23.030	7.448	-25.774	0.63052	0.48929	0.49490	-0.34351	23.3	13111	100
2025-5-25 10:15:34.990	WT901BLE68(801231B9234C)	0.442	0.751	-0.038	27.405	-35.217	14.648	-66.91	87.45	-166.07	23.030	7.448	-25.774	0.63052	0.48929	0.49490	-0.34351	23.3	13111	100
2025-5-25 10:15:34.991	WT901BLE68(801231B9234C)	0.418	0.650	-0.130	-24.963	-10.681	56.274	-44.87	88.61	-143.26	23.030	7.448	-25.774	0.63052	0.48929	0.49490	-0.34351	23.3	13111	100
2025-5-25 10:15:35.32	WT901BLE68(801231B9234C)	0.283	0.776	-0.241	-63.782	10.437	102.844	45.94	89.11	-50.93	23.030	7.448	-25.774	0.63052	0.48929	0.49490	-0.34351	23.3	13111	100
2025-5-25 10:15:35.32	WT901BLE68(801231B9234C)	-0.123	0.890	-0.126	-118.530	19.104	149.414	84.69	86.09	-9.74	23.030	7.448	-25.774	0.63052	0.48929	0.49490	-0.34351	23.3	13111	100
2025-5-25 10:15:35.77	WT901BLE68(801231B9234C)	-1.454	0.854	0.168	-176.636	15.991	189.758	89.36	81.78	-1.52	23.030	7.448	-25.774	0.63052	0.48929	0.49490	-0.34351	23.3	13111	100
2025-5-25 10:15:35.78	WT901BLE68(801231B9234C)	-3.091	1.229	0.417	-249.817	-9.766	202.515	87.10	77.10	1.07	23.030	7.448	-25.774	0.63052	0.48929	0.49490	-0.34351	23.3	13111	100
2025-5-25 10:15:35.102	WT901BLE68(801231B9234C)	-2.625	1.330	0.805	-257.874	-109.253	311.646	80.68	71.21	0.36	23.030	7.448	-25.774	0.63052	0.48929	0.49490	-0.34351	23.3	13111	100
2025-5-25 10:15:35.102	WT901BLE68(801231B9234C)	-1.942	0.850	1.432	-153.564	-277.100	301.575	70.13	63.53	-6.49	23.030	7.448	-25.774	0.63052	0.48929	0.49490	-0.34351	23.3	13111	100
2025-5-25 10:15:35.145	WT901BLE68(801231B9234C)	-1.463	1.256	1.621	-89.783	-129.578	240.662	64.63	57.15	-9.79	23.030	7.448	-25.774	0.72827	0.50778	0.34818	-0.30072	23.3	13111	100
2025-5-25 10:15:35.145	WT901BLE68(801231B9234C)	-1.882	0.610	1.347	-48.645	131.165	195.374	66.76	53.43	-5.23	23.030	7.448	-25.774	0.72827	0.50778	0.34818	-0.30072	23.3	13111	100
2025-5-25 10:15:35.192	WT901BLE68(801231B9234C)	-1.838	0.200	1.064	-33.630	232.361	157.104	72.19	51.63	3.15	23.030	7.448	-25.774	0.72827	0.50778	0.34818	-0.30072	23.3	13111	100
2025-5-25 10:15:35.192	WT901BLE68(801231B9234C)	-1.412	-0.027	0.814	-3.418	170.532	132.324	77.04	49.97	10.23	23.030	7.448	-25.774	0.72827	0.50778	0.34818	-0.30072	23.3	13111	100
2025-5-25 10:15:35.235	WT901BLE68(801231B9234C)	-0.981	-0.182	0.662	2.441	96.924	108.276	79.87	48.28	14.32	23.030	7.448	-25.774	0.72827	0.50778	0.34818	-0.30072	23.3	13111	100
2025-5-25 10:15:35.235	WT901BLE68(801231B9234C)	-0.680	-0.363	0.534	-5.493	62.744	92.590	81.21	46.82	16.52	23.030	7.448	-25.774	0.72827	0.50778	0.34818	-0.30072	23.3	13111	100
2025-5-25 10:15:35.280	WT901BLE68(801231B9234C)	-0.524	-0.577	0.461	-19.836	63.477	79.834	82.01	45.65	18.22	23.030	7.448	-25.774	0.72827	0.50778	0.34818	-0.30072	23.3	13111	100
2025-5-25 10:15:35.280	WT901BLE68(801231B9234C)	-0.397	-0.825	0.404	-30.212	48.706	49.377	82.46	45.03	19.42	23.030	7.448	-25.774	0.72827	0.50778	0.34818	-0.30072	23.3	13111	100
2025-5-25 10:15:35.305	WT901BLE68(801231B9234C)	-0.206	-1.084	0.301	-32.227	0.427	5.432	82.29	45.23	19.25	23.030	7.448	-25.774	0.72827	0.50778	0.34818	-0.30072	23.3	13111	100
2025-5-25 10:15:35.305	WT901BLE68(801231B9234C)	-0.037	-1.227	0.262	-22.583	-18.127	-54.993	81.61	46.49	17.92	23.030	7.448	-25.774	0.72827	0.50778	0.34818	-0.30072	23.3	13111	100
2025-5-25 10:15:35.350	WT901BLE68(801231B9234C)	-0.152	-1.176	0.248	-16.907	27.710	-113.586	81.64	49.11	17.23	29.890	-3.528	-21.854	0.72827	0.50778	0.34818	-0.30072	23.3	13111	100
2025-5-25 10:15:35.350	WT901BLE68(801231B9234C)	-0.563	-1.035	0.266	-7.385	58.899	-150.452	82.74	52.76	17.76	29.890	-3.528	-21.854	0.72827	0.50778	0.34818	-0.30072	23.3	13111	100
2025-5-25 10:15:35.395	WT901BLE68(801231B9234C)	-1.079	-0.799	0.281	8.118	30.945	-185.181	84.28	57.09	18.45	29.890	-3.528	-21.854	0.72827	0.50778	0.34818	-0.30072	23.3	13111	100
2025-5-25 10:15:35.395	WT901BLE68(801231B9234C)	-1.692	-0.566	0.322	26.428	-44.800	-216.309	84.30	61.94	16.91	29.890	-3.528	-21.854	0.72827	0.50778	0.34818	-0.30072	23.3	13111	100
2025-5-25 10:15:35.437	WT901BLE68(801231B9234C)	-2.176	-0.386	0.595	37.659	-106.506	-214.539	81.10	66.76	11.55	29.890	-3.528	-21.854	0.72827	0.50778	0.34818	-0.30072	23.3	13111	100
2025-5-25 10:15:35.437	WT901BLE68(801231B9234C)	-2.845	-0.197	0.642	7.446	-173.950	-207.153	72.28	70.87	0.73	29.890	-3.528	-21.854	0.72827	0.50778	0.34818	-0.30072	23.3	13111	100
2025-5-25 10:15:35.482	WT901BLE68(801231B9234C)	-3.477	0.057	1.067	-33.447	-212.463	-225.159	55.37	73.43	-17.45	29.890	-3.528	-21.854	0.72827	0.50778	0.34818	-0.30072	23.3	13111	100
2025-5-25 10:15:35.482	WT901BLE68(801231B9234C)	-2.262	0.667	1.125	-63.538	-281.128	-260.132	29.72	73.44	-43.34	29.890	-3.528	-21.854	0.72827	0.50778	0.34818	-0.30072	23.3	13111	100
2025-5-25 10:15:35.528	WT901BLE68(801231B9234C)	-1.437	1.002	1.106	-5.127	-258.240	-225.037	10.12	69.70	-63.29	29.890	-3.528	-21.854	0.72827	0.50778	0.34818	-0.30072	23.3	13111	100
2025-5-25 10:15:35.529	WT901BLE68(801231B9234C)	-1.069	1.291	0.954	39.490	-55.359	-204.590	-0.43	67.34	-75.05	29.890	-3.528	-21.854	0.72827	0.50778	0.34818	-0.30072	23.3	13111	100
2025-5-25 10:15:35.551	WT901BLE68(801231B9234C)	-0.894	1.259	0.551	82.336	142.578	-181.396	-8.15	68.55	-84.48	29.890	-3.528	-21.854	0.61972	0.34198	0.46118	-0.53497	23.3	13111	100
