time	DeviceName	AccX(g)	AccY(g)	AccZ(g)	AsX(°/s)	AsY(°/s)	AsZ(°/s)	AngleX(°)	AngleY(°)	AngleZ(°)	HX(uT)	HY(uT)	HZ(uT)	Q0()	Q1()	Q2()	Q3()	Temperature(°C)	Version()	Battery level(%)
2025-5-24 9:8:30.571	WT901BLE68(801231B9234C)	-2.413	1.711	0.341	-77.698	-23.193	399.353	55.77	58.72	-34.02	27.538	-5.586	-44.688	-0.56290	-0.45172	-0.33572	0.60519	17.2	13111	100
2025-5-24 9:8:30.571	WT901BLE68(801231B9234C)	-2.262	1.942	1.140	-48.096	-102.966	421.082	59.41	50.45	-28.03	27.538	-5.586	-44.688	-0.56290	-0.45172	-0.33572	0.60519	17.2	13111	100
2025-5-24 9:8:30.632	WT901BLE68(801231B9234C)	-2.640	1.956	1.603	-12.085	26.978	350.464	62.33	43.45	-23.15	27.538	-5.586	-44.688	-0.56290	-0.45172	-0.33572	0.60519	17.2	13111	100
2025-5-24 9:8:30.632	WT901BLE68(801231B9234C)	-2.665	1.347	1.419	-15.381	188.721	286.438	66.40	39.05	-16.24	27.538	-5.586	-44.688	-0.56290	-0.45172	-0.33572	0.60519	17.2	13111	100
2025-5-24 9:8:30.664	WT901BLE68(801231B9234C)	-2.314	0.794	1.129	-15.137	225.586	260.803	70.54	35.68	-8.63	27.538	-5.586	-44.688	-0.56290	-0.45172	-0.33572	0.60519	17.2	13111	100
2025-5-24 9:8:30.664	WT901BLE68(801231B9234C)	-1.907	0.426	1.029	-19.897	186.340	230.774	73.59	32.49	-2.42	27.538	-5.586	-44.688	-0.56290	-0.45172	-0.33572	0.60519	17.2	13111	100
2025-5-24 9:8:30.694	WT901BLE68(801231B9234C)	-1.547	0.070	1.025	-42.908	161.987	202.393	75.42	29.58	2.35	27.538	-5.586	-44.688	-0.56290	-0.45172	-0.33572	0.60519	17.2	13111	100
2025-5-24 9:8:30.694	WT901BLE68(801231B9234C)	-1.214	-0.303	0.965	-76.477	136.902	178.833	76.04	27.04	6.09	29.204	-23.030	-40.474	-0.56290	-0.45172	-0.33572	0.60519	17.2	13111	100
2025-5-24 9:8:30.753	WT901BLE68(801231B9234C)	-0.962	-0.597	0.835	-114.624	103.210	157.349	75.50	24.87	8.85	29.204	-23.030	-40.474	-0.56290	-0.45172	-0.33572	0.60519	17.2	13111	100
2025-5-24 9:8:30.753	WT901BLE68(801231B9234C)	-0.862	-0.958	0.688	-142.822	64.575	120.483	73.89	23.23	10.48	29.204	-23.030	-40.474	-0.56290	-0.45172	-0.33572	0.60519	17.2	13111	100
2025-5-24 9:8:30.781	WT901BLE68(801231B9234C)	-0.512	-2.855	0.725	-198.608	38.452	74.707	71.03	22.60	11.16	29.204	-23.030	-40.474	-0.56290	-0.45172	-0.33572	0.60519	17.2	13111	100
2025-5-24 9:8:30.781	WT901BLE68(801231B9234C)	-0.656	-2.147	0.296	-160.400	59.021	-16.174	68.42	23.23	11.57	29.204	-23.030	-40.474	-0.56290	-0.45172	-0.33572	0.60519	17.2	13111	100
2025-5-24 9:8:30.841	WT901BLE68(801231B9234C)	-0.715	-1.518	0.020	-135.132	59.753	-113.525	66.18	25.99	11.49	29.204	-23.030	-40.474	-0.56290	-0.45172	-0.33572	0.60519	17.2	13111	100
2025-5-24 9:8:30.842	WT901BLE68(801231B9234C)	-0.760	-1.346	-0.086	-92.896	24.170	-188.599	64.04	30.09	10.15	29.204	-23.030	-40.474	-0.56290	-0.45172	-0.33572	0.60519	17.2	13111	100
2025-5-24 9:8:30.874	WT901BLE68(801231B9234C)	-0.887	-1.141	-0.164	-46.082	-7.019	-252.319	61.94	35.11	7.22	29.204	-23.030	-40.474	-0.56290	-0.45172	-0.33572	0.60519	17.2	13111	100
2025-5-24 9:8:30.875	WT901BLE68(801231B9234C)	-1.138	-0.941	-0.022	-1.526	-18.677	-305.420	59.66	40.86	2.88	29.204	-23.030	-40.474	-0.56290	-0.45172	-0.33572	0.60519	17.2	13111	100
2025-5-24 9:8:30.905	WT901BLE68(801231B9234C)	-1.981	-0.639	0.315	37.415	-13.489	-353.943	56.94	47.35	-2.86	29.204	-23.030	-40.474	-0.56290	-0.45172	-0.33572	0.60519	17.2	13111	100
2025-5-24 9:8:30.905	WT901BLE68(801231B9234C)	-3.094	-0.277	0.584	44.067	9.766	-372.253	53.05	54.18	-9.98	29.204	-23.030	-40.474	-0.76199	-0.42795	-0.38150	0.30096	17.2	13111	100
2025-5-24 9:8:30.933	WT901BLE68(801231B9234C)	-3.925	-0.228	0.698	47.729	15.015	-374.817	47.10	60.88	-18.85	29.204	-23.030	-40.474	-0.76199	-0.42795	-0.38150	0.30096	17.2	13111	100
2025-5-24 9:8:30.934	WT901BLE68(801231B9234C)	-3.701	0.356	0.797	61.035	-106.934	-362.610	35.83	65.45	-33.35	29.204	-23.030	-40.474	-0.76199	-0.42795	-0.38150	0.30096	17.2	13111	100
2025-5-24 9:8:30.992	WT901BLE68(801231B9234C)	-2.502	1.104	0.817	49.072	-161.499	-319.519	20.64	66.30	-51.75	29.204	-23.030	-40.474	-0.76199	-0.42795	-0.38150	0.30096	17.2	13111	100
2025-5-24 9:8:30.992	WT901BLE68(801231B9234C)	-1.664	2.187	0.689	60.974	-54.626	-274.231	8.38	65.89	-66.70	29.204	-23.030	-40.474	-0.76199	-0.42795	-0.38150	0.30096	17.2	13111	100
2025-5-24 9:8:31.28	WT901BLE68(801231B9234C)	-1.323	1.320	0.599	81.177	82.031	-284.668	-2.64	67.02	-80.38	29.204	-23.030	-40.474	-0.76199	-0.42795	-0.38150	0.30096	17.2	13111	100
2025-5-24 9:8:31.28	WT901BLE68(801231B9234C)	-0.922	1.179	0.362	140.320	169.495	-248.108	-13.41	69.25	-94.47	29.204	-23.030	-40.474	-0.76199	-0.42795	-0.38150	0.30096	17.2	13111	100
2025-5-24 9:8:31.82	WT901BLE68(801231B9234C)	-0.539	1.312	0.172	189.575	209.473	-202.271	-24.22	71.84	-109.50	29.204	-23.030	-40.474	-0.76199	-0.42795	-0.38150	0.30096	17.2	13111	100
2025-5-24 9:8:31.82	WT901BLE68(801231B9234C)	-0.242	1.172	0.083	217.102	222.473	-153.748	-35.47	74.22	-125.36	29.204	-23.030	-40.474	-0.76199	-0.42795	-0.38150	0.30096	17.2	13111	100
2025-5-24 9:8:31.113	WT901BLE68(801231B9234C)	-0.071	1.049	0.026	231.689	227.234	-107.422	-47.83	76.39	-142.49	29.204	-23.030	-40.474	-0.76199	-0.42795	-0.38150	0.30096	17.2	13111	100
2025-5-24 9:8:31.113	WT901BLE68(801231B9234C)	0.106	0.901	-0.045	229.858	215.332	-71.228	-61.82	78.12	-161.12	32.830	6.370	-38.514	-0.76199	-0.42795	-0.38150	0.30096	17.2	13111	100
2025-5-24 9:8:31.141	WT901BLE68(801231B9234C)	0.259	0.992	-0.110	219.299	186.707	-43.457	-76.61	79.19	179.76	32.830	6.370	-38.514	-0.76199	-0.42795	-0.38150	0.30096	17.2	13111	100
2025-5-24 9:8:31.141	WT901BLE68(801231B9234C)	0.346	0.976	-0.150	193.542	146.729	-14.465	-90.10	79.74	162.48	32.830	6.370	-38.514	-0.76199	-0.42795	-0.38150	0.30096	17.2	13111	100
2025-5-24 9:8:31.202	WT901BLE68(801231B9234C)	0.284	0.961	-0.130	138.428	105.164	18.738	-102.04	80.28	147.78	32.830	6.370	-38.514	-0.76199	-0.42795	-0.38150	0.30096	17.2	13111	100
2025-5-24 9:8:31.202	WT901BLE68(801231B9234C)	0.151	0.850	-0.122	71.838	66.833	49.988	-113.77	81.11	134.64	32.830	6.370	-38.514	-0.76199	-0.42795	-0.38150	0.30096	17.2	13111	100
2025-5-24 9:8:31.232	WT901BLE68(801231B9234C)	-0.042	0.792	-0.137	9.888	44.800	77.393	-128.06	82.17	120.25	32.830	6.370	-38.514	-0.76199	-0.42795	-0.38150	0.30096	17.2	13111	100
2025-5-24 9:8:31.232	WT901BLE68(801231B9234C)	-0.405	0.836	-0.122	-42.969	40.894	110.474	-149.44	82.99	99.85	32.830	6.370	-38.514	-0.76199	-0.42795	-0.38150	0.30096	17.2	13111	100
2025-5-24 9:8:31.264	WT901BLE68(801231B9234C)	-1.232	0.986	0.011	-119.141	11.353	137.268	-177.38	83.04	74.14	32.830	6.370	-38.514	-0.76199	-0.42795	-0.38150	0.30096	17.2	13111	100
2025-5-24 9:8:31.265	WT901BLE68(801231B9234C)	-2.900	1.110	0.055	-216.675	-57.434	156.311	152.30	82.41	47.84	32.830	6.370	-38.514	-0.76199	-0.42795	-0.38150	0.30096	17.2	13111	100
2025-5-24 9:8:31.353	WT901BLE68(801231B9234C)	-2.203	1.043	0.143	-267.151	-136.902	205.139	118.73	80.99	19.79	32.830	6.370	-38.514	-0.52090	-0.58566	-0.41931	0.45795	17.2	13111	100
2025-5-24 9:8:31.353	WT901BLE68(801231B9234C)	-2.486	0.688	0.435	-213.318	-113.525	334.961	94.81	75.64	0.48	32.830	6.370	-38.514	-0.52090	-0.58566	-0.41931	0.45795	17.2	13111	100
2025-5-24 9:8:31.354	WT901BLE68(801231B9234C)	-3.027	0.999	0.819	-202.698	77.515	211.914	89.47	69.97	-0.39	32.830	6.370	-38.514	-0.52090	-0.58566	-0.41931	0.45795	17.2	13111	100
2025-5-24 9:8:31.354	WT901BLE68(801231B9234C)	-2.419	0.881	0.944	-178.955	160.522	182.617	92.36	66.18	7.34	32.830	6.370	-38.514	-0.52090	-0.58566	-0.41931	0.45795	17.2	13111	100
2025-5-24 9:8:31.383	WT901BLE68(801231B9234C)	-2.085	0.327	0.609	-147.949	155.701	148.010	94.70	62.64	13.74	32.830	6.370	-38.514	-0.52090	-0.58566	-0.41931	0.45795	17.2	13111	100
2025-5-24 9:8:31.384	WT901BLE68(801231B9234C)	-1.609	0.031	0.349	-146.606	141.052	127.686	96.27	59.77	19.08	32.830	6.370	-38.514	-0.52090	-0.58566	-0.41931	0.45795	17.2	13111	100
2025-5-24 9:8:31.442	WT901BLE68(801231B9234C)	-1.271	-0.192	0.184	-138.123	88.013	110.352	96.13	57.35	22.29	32.830	6.370	-38.514	-0.52090	-0.58566	-0.41931	0.45795	17.2	13111	100
2025-5-24 9:8:31.442	WT901BLE68(801231B9234C)	-1.000	-0.311	0.131	-134.277	47.974	89.355	94.74	55.55	23.74	32.830	6.370	-38.514	-0.52090	-0.58566	-0.41931	0.45795	17.2	13111	100
2025-5-24 9:8:31.474	WT901BLE68(801231B9234C)	-0.708	-0.457	0.096	-129.517	24.170	74.402	92.74	54.26	24.20	32.830	6.370	-38.514	-0.52090	-0.58566	-0.41931	0.45795	17.2	13111	100
2025-5-24 9:8:31.474	WT901BLE68(801231B9234C)	-0.469	-0.639	0.137	-119.934	13.184	67.383	90.66	53.24	24.20	32.830	6.370	-38.514	-0.52090	-0.58566	-0.41931	0.45795	17.2	13111	100
2025-5-24 9:8:31.505	WT901BLE68(801231B9234C)	-0.309	-0.845	0.251	-104.187	3.723	57.922	88.80	52.44	23.94	32.830	6.370	-38.514	-0.52090	-0.58566	-0.41931	0.45795	17.2	13111	100
2025-5-24 9:8:31.505	WT901BLE68(801231B9234C)	-0.069	-1.503	0.417	-97.168	-16.113	41.199	86.92	51.96	23.26	43.512	-11.172	-26.362	-0.52090	-0.58566	-0.41931	0.45795	17.2	13111	100
2025-5-24 9:8:31.562	WT901BLE68(801231B9234C)	0.037	-1.614	0.365	-62.500	-35.217	-8.972	85.23	52.33	21.90	43.512	-11.172	-26.362	-0.52090	-0.58566	-0.41931	0.45795	17.2	13111	100
2025-5-24 9:8:31.562	WT901BLE68(801231B9234C)	-0.070	-1.364	0.186	-24.658	-24.780	-61.584	84.28	53.81	20.46	43.512	-11.172	-26.362	-0.52090	-0.58566	-0.41931	0.45795	17.2	13111	100
2025-5-24 9:8:31.592	WT901BLE68(801231B9234C)	-0.276	-1.065	0.039	8.972	-7.385	-107.117	84.43	56.37	19.58	43.512	-11.172	-26.362	-0.52090	-0.58566	-0.41931	0.45795	17.2	13111	100
2025-5-24 9:8:31.592	WT901BLE68(801231B9234C)	-0.545	-0.885	0.068	46.448	-11.902	-153.503	85.48	59.85	18.97	43.512	-11.172	-26.362	-0.52090	-0.58566	-0.41931	0.45795	17.2	13111	100
2025-5-24 9:8:31.628	WT901BLE68(801231B9234C)	-0.775	-0.764	0.104	99.060	-56.885	-188.599	86.31	64.07	17.05	43.512	-11.172	-26.362	-0.52090	-0.58566	-0.41931	0.45795	17.2	13111	100
2025-5-24 9:8:31.628	WT901BLE68(801231B9234C)	-1.154	-0.578	0.093	118.835	-109.070	-209.961	84.97	68.81	12.19	43.512	-11.172	-26.362	-0.52090	-0.58566	-0.41931	0.45795	17.2	13111	100
2025-5-24 9:8:31.684	WT901BLE68(801231B9234C)	-2.570	-0.594	0.228	112.183	-128.906	-208.496	79.82	73.39	3.41	43.512	-11.172	-26.362	-0.52090	-0.58566	-0.41931	0.45795	17.2	13111	100
2025-5-24 9:8:31.685	WT901BLE68(801231B9234C)	-3.501	-0.768	0.436	97.473	-87.708	-211.243	70.71	77.64	-8.87	43.512	-11.172	-26.362	-0.52090	-0.58566	-0.41931	0.45795	17.2	13111	100
2025-5-24 9:8:31.715	WT901BLE68(801231B9234C)	-3.765	-0.654	0.197	122.681	-160.583	-158.875	54.33	80.23	-28.45	43.512	-11.172	-26.362	-0.52090	-0.58566	-0.41931	0.45795	17.2	13111	100
2025-5-24 9:8:31.715	WT901BLE68(801231B9234C)	-3.143	0.437	0.000	129.700	-219.299	-185.608	27.15	79.79	-59.16	43.512	-11.172	-26.362	-0.56552	-0.45096	-0.43347	0.53741	17.2	13111	100
2025-5-24 9:8:31.743	WT901BLE68(801231B9234C)	-2.317	1.498	0.047	141.113	-179.199	-176.147	7.21	77.04	-82.49	43.512	-11.172	-26.362	-0.56552	-0.45096	-0.43347	0.53741	17.2	13111	100
2025-5-24 9:8:31.743	WT901BLE68(801231B9234C)	-1.833	1.974	0.208	127.991	21.973	-171.448	-3.85	76.17	-96.72	43.512	-11.172	-26.362	-0.56552	-0.45096	-0.43347	0.53741	17.2	13111	100
2025-5-24 9:8:31.802	WT901BLE68(801231B9234C)	-1.379	0.761	0.327	139.771	116.760	-164.368	-15.87	77.62	-111.49	43.512	-11.172	-26.362	-0.56552	-0.45096	-0.43347	0.53741	17.2	13111	100
2025-5-24 9:8:31.803	WT901BLE68(801231B9234C)	-0.750	1.106	0.049	200.806	118.408	-160.034	-29.69	78.74	-129.16	43.512	-11.172	-26.362	-0.56552	-0.45096	-0.43347	0.53741	17.2	13111	100
2025-5-24 9:8:31.831	WT901BLE68(801231B9234C)	-0.361	1.084	-0.018	196.106	106.995	-107.666	-41.70	79.34	-145.17	43.512	-11.172	-26.362	-0.56552	-0.45096	-0.43347	0.53741	17.2	13111	100
2025-5-24 9:8:31.831	WT901BLE68(801231B9234C)	0.005	0.783	0.010	194.641	78.918	-66.162	-49.73	79.79	-156.90	43.512	-11.172	-26.362	-0.56552	-0.45096	-0.43347	0.53741	17.2	13111	100
2025-5-24 9:8:31.861	WT901BLE68(801231B9234C)	0.479	0.727	-0.036	198.486	27.344	-23.010	-51.99	80.16	-162.75	43.512	-11.172	-26.362	-0.56552	-0.45096	-0.43347	0.53741	17.2	13111	100
2025-5-24 9:8:31.861	WT901BLE68(801231B9234C)	0.898	0.813	-0.117	187.378	-21.606	11.902	-47.04	80.52	-161.08	43.512	-11.172	-26.362	-0.56552	-0.45096	-0.43347	0.53741	17.2	13111	100
2025-5-24 9:8:31.928	WT901BLE68(801231B9234C)	1.064	0.947	-0.165	159.363	-23.376	25.452	-39.03	80.96	-155.82	43.512	-11.172	-26.362	-0.56552	-0.45096	-0.43347	0.53741	17.2	13111	100
2025-5-24 9:8:31.929	WT901BLE68(801231B9234C)	0.803	0.927	-0.220	103.882	5.432	49.988	-30.66	81.97	-149.26	43.512	-11.172	-26.362	-0.56552	-0.45096	-0.43347	0.53741	17.2	13111	100
2025-5-24 9:8:31.954	WT901BLE68(801231B9234C)	0.207	0.833	-0.169	46.143	47.974	92.041	-17.94	83.96	-137.20	35.476	-7.252	-36.652	-0.56552	-0.45096	-0.43347	0.53741	17.2	13111	100
2025-5-24 9:8:31.954	WT901BLE68(801231B9234C)	-0.485	0.965	-0.144	-18.188	74.036	126.404	12.82	86.13	-105.94	35.476	-7.252	-36.652	-0.56552	-0.45096	-0.43347	0.53741	17.2	13111	100
2025-5-24 9:8:31.984	WT901BLE68(801231B9234C)	-0.966	1.185	-0.056	-100.586	48.828	147.095	59.53	85.39	-57.18	35.476	-7.252	-36.652	-0.56552	-0.45096	-0.43347	0.53741	17.2	13111	100
2025-5-24 9:8:31.985	WT901BLE68(801231B9234C)	-1.348	1.229	0.218	-168.396	39.368	160.645	78.21	82.28	-34.93	35.476	-7.252	-36.652	-0.56552	-0.45096	-0.43347	0.53741	17.2	13111	100
2025-5-24 9:8:32.41	WT901BLE68(801231B9234C)	-1.947	1.205	0.492	-210.266	80.688	170.227	86.11	78.52	-22.35	35.476	-7.252	-36.652	-0.56552	-0.45096	-0.43347	0.53741	17.2	13111	100
2025-5-24 9:8:32.42	WT901BLE68(801231B9234C)	-2.480	1.220	0.240	-220.276	160.583	176.086	92.85	74.55	-10.44	35.476	-7.252	-36.652	-0.56552	-0.45096	-0.43347	0.53741	17.2	13111	100
2025-5-24 9:8:32.74	WT901BLE68(801231B9234C)	-2.839	0.998	0.182	-229.187	202.515	175.354	99.00	70.15	1.32	35.476	-7.252	-36.652	-0.56552	-0.45096	-0.43347	0.53741	17.2	13111	100
2025-5-24 9:8:32.74	WT901BLE68(801231B9234C)	-2.538	1.004	0.421	-206.543	159.058	136.780	101.60	66.23	9.18	35.476	-7.252	-36.652	-0.56552	-0.45096	-0.43347	0.53741	17.2	13111	100
2025-5-24 9:8:32.105	WT901BLE68(801231B9234C)	-1.992	0.961	0.457	-173.645	70.557	126.160	100.70	63.21	12.61	35.476	-7.252	-36.652	-0.56552	-0.45096	-0.43347	0.53741	17.2	13111	100
2025-5-24 9:8:32.105	WT901BLE68(801231B9234C)	-1.786	0.594	0.344	-153.015	49.255	136.353	98.20	60.38	13.60	35.476	-7.252	-36.652	-0.60529	-0.61465	-0.40036	0.30890	17.2	13111	100
2025-5-24 9:8:32.162	WT901BLE68(801231B9234C)	-1.512	0.195	0.313	-147.583	54.688	133.057	96.11	57.61	14.88	35.476	-7.252	-36.652	-0.60529	-0.61465	-0.40036	0.30890	17.2	13111	100
2025-5-24 9:8:32.163	WT901BLE68(801231B9234C)	-1.198	0.034	0.228	-126.709	29.175	116.150	94.02	55.21	15.66	35.476	-7.252	-36.652	-0.60529	-0.61465	-0.40036	0.30890	17.2	13111	100
2025-5-24 9:8:32.192	WT901BLE68(801231B9234C)	-0.903	-0.060	0.190	-121.582	13.916	95.032	91.73	53.32	15.81	35.476	-7.252	-36.652	-0.60529	-0.61465	-0.40036	0.30890	17.2	13111	100
2025-5-24 9:8:32.192	WT901BLE68(801231B9234C)	-0.656	-0.229	0.157	-118.958	15.503	78.308	89.53	51.90	15.93	35.476	-7.252	-36.652	-0.60529	-0.61465	-0.40036	0.30890	17.2	13111	100
2025-5-24 9:8:32.224	WT901BLE68(801231B9234C)	-0.494	-0.419	0.109	-110.779	24.231	72.632	87.72	50.75	16.24	35.476	-7.252	-36.652	-0.60529	-0.61465	-0.40036	0.30890	17.2	13111	100
2025-5-24 9:8:32.224	WT901BLE68(801231B9234C)	-0.422	-0.735	0.167	-101.379	33.630	69.885	86.46	49.73	16.89	35.476	-7.252	-36.652	-0.60529	-0.61465	-0.40036	0.30890	17.2	13111	100
2025-5-24 9:8:32.281	WT901BLE68(801231B9234C)	-0.292	-1.230	0.257	-76.233	19.104	46.204	85.56	49.10	17.31	35.476	-7.252	-36.652	-0.60529	-0.61465	-0.40036	0.30890	17.2	13111	100
2025-5-24 9:8:32.282	WT901BLE68(801231B9234C)	-0.207	-2.102	0.256	-36.255	-8.179	3.967	84.81	49.22	16.97	35.476	-7.252	-36.652	-0.60529	-0.61465	-0.40036	0.30890	17.2	13111	100
2025-5-24 9:8:32.313	WT901BLE68(801231B9234C)	-0.215	-1.299	0.149	13.733	-7.324	-55.908	85.12	50.58	16.32	35.476	-7.252	-36.652	-0.60529	-0.61465	-0.40036	0.30890	17.2	13111	100
2025-5-24 9:8:32.313	WT901BLE68(801231B9234C)	-0.375	-0.918	0.128	61.584	-12.878	-86.792	86.34	52.83	15.63	39.592	-12.936	-29.302	-0.60529	-0.61465	-0.40036	0.30890	17.2	13111	100
2025-5-24 9:8:32.343	WT901BLE68(801231B9234C)	-0.487	-0.774	0.159	93.933	-20.447	-130.737	88.10	55.88	14.79	39.592	-12.936	-29.302	-0.60529	-0.61465	-0.40036	0.30890	17.2	13111	100
2025-5-24 9:8:32.343	WT901BLE68(801231B9234C)	-0.977	-0.664	0.154	133.850	-35.217	-161.438	90.36	59.67	13.68	39.592	-12.936	-29.302	-0.60529	-0.61465	-0.40036	0.30890	17.2	13111	100
2025-5-24 9:8:32.403	WT901BLE68(801231B9234C)	-2.479	-0.577	0.255	157.898	-38.513	-183.411	93.07	63.97	12.44	39.592	-12.936	-29.302	-0.60529	-0.61465	-0.40036	0.30890	17.2	13111	100
2025-5-24 9:8:32.403	WT901BLE68(801231B9234C)	-2.803	-0.465	0.558	155.151	-39.063	-208.374	96.16	68.68	11.58	39.592	-12.936	-29.302	-0.60529	-0.61465	-0.40036	0.30890	17.2	13111	100
2025-5-24 9:8:32.435	WT901BLE68(801231B9234C)	-2.293	0.095	0.048	186.218	-180.725	-144.165	94.40	72.91	5.34	39.592	-12.936	-29.302	-0.60529	-0.61465	-0.40036	0.30890	17.2	13111	100
2025-5-24 9:8:32.435	WT901BLE68(801231B9234C)	-1.644	0.432	-0.385	217.834	-172.729	-135.864	85.06	75.97	-9.06	39.592	-12.936	-29.302	-0.60529	-0.61465	-0.40036	0.30890	17.2	13111	100
2025-5-24 9:8:32.661	WT901BLE68(801231B9234C)	-1.393	1.467	-0.613	293.945	-14.160	-123.596	82.74	78.77	-17.08	39.592	-12.936	-29.302	-0.60529	-0.61465	-0.40036	0.30890	17.2	13111	100
2025-5-24 9:8:32.661	WT901BLE68(801231B9234C)	-2.014	1.520	-0.618	260.864	83.252	-18.677	92.78	79.72	-11.94	39.592	-12.936	-29.302	-0.60529	-0.61465	-0.40036	0.30890	17.2	13111	100
2025-5-24 9:8:32.662	WT901BLE68(801231B9234C)	-2.031	1.704	-0.362	221.069	164.795	-22.949	112.91	79.51	4.17	39.592	-12.936	-29.302	-0.60529	-0.61465	-0.40036	0.30890	17.2	13111	100
2025-5-24 9:8:32.662	WT901BLE68(801231B9234C)	-1.086	1.441	-0.215	245.239	23.987	5.554	125.18	78.58	12.07	39.592	-12.936	-29.302	-0.60529	-0.61465	-0.40036	0.30890	17.2	13111	100
2025-5-24 9:8:32.662	WT901BLE68(801231B9234C)	-0.421	1.260	-0.387	245.850	-66.650	33.081	124.74	78.51	6.87	39.592	-12.936	-29.302	-0.60529	-0.61465	-0.40036	0.30890	17.2	13111	100
2025-5-24 9:8:32.662	WT901BLE68(801231B9234C)	-0.039	0.942	-0.216	211.060	-57.373	28.137	122.70	78.55	0.65	39.592	-12.936	-29.302	-0.36862	-0.68436	-0.29694	0.55450	17.2	13111	100
2025-5-24 9:8:32.662	WT901BLE68(801231B9234C)	0.219	0.702	-0.075	181.702	-23.682	17.822	122.23	78.33	-3.25	39.592	-12.936	-29.302	-0.36862	-0.68436	-0.29694	0.55450	17.2	13111	100
2025-5-24 9:8:32.662	WT901BLE68(801231B9234C)	0.580	0.748	0.108	147.034	30.151	4.395	125.45	77.71	-2.74	39.592	-12.936	-29.302	-0.36862	-0.68436	-0.29694	0.55450	17.2	13111	100
2025-5-24 9:8:32.662	WT901BLE68(801231B9234C)	0.601	1.011	0.528	81.116	112.915	-1.343	132.47	76.31	2.96	39.592	-12.936	-29.302	-0.36862	-0.68436	-0.29694	0.55450	17.2	13111	100
2025-5-24 9:8:32.662	WT901BLE68(801231B9234C)	0.012	0.754	0.375	7.813	185.425	-36.316	140.82	73.53	11.74	39.592	-12.936	-29.302	-0.36862	-0.68436	-0.29694	0.55450	17.2	13111	100
2025-5-24 9:8:32.671	WT901BLE68(801231B9234C)	-0.051	0.477	0.201	-66.895	108.704	-49.683	147.44	71.25	20.45	39.592	-12.936	-29.302	-0.36862	-0.68436	-0.29694	0.55450	17.2	13111	100
2025-5-24 9:8:32.671	WT901BLE68(801231B9234C)	-0.123	0.261	0.130	-95.093	56.946	-38.757	148.35	69.91	24.20	39.592	-12.936	-29.302	-0.36862	-0.68436	-0.29694	0.55450	17.2	13111	100
2025-5-24 9:8:32.731	WT901BLE68(801231B9234C)	-0.545	0.322	-0.180	-88.928	67.871	-30.579	148.69	68.74	27.54	43.512	-26.166	-20.972	-0.36862	-0.68436	-0.29694	0.55450	17.2	13111	100
2025-5-24 9:8:32.732	WT901BLE68(801231B9234C)	-1.403	0.736	-0.398	-111.938	97.595	-47.729	149.34	66.85	31.34	43.512	-26.166	-20.972	-0.36862	-0.68436	-0.29694	0.55450	17.2	13111	100
2025-5-24 9:8:32.761	WT901BLE68(801231B9234C)	-2.124	1.054	-0.526	-163.757	58.044	-67.139	149.69	65.84	35.62	43.512	-26.166	-20.972	-0.36862	-0.68436	-0.29694	0.55450	17.2	13111	100
2025-5-24 9:8:32.761	WT901BLE68(801231B9234C)	-2.415	1.251	-0.542	-203.186	17.456	-31.860	147.49	65.40	38.22	43.512	-26.166	-20.972	-0.36862	-0.68436	-0.29694	0.55450	17.2	13111	100
2025-5-24 9:8:32.791	WT901BLE68(801231B9234C)	-1.971	1.409	-0.707	-192.810	-62.622	-10.315	142.71	65.92	37.92	43.512	-26.166	-20.972	-0.36862	-0.68436	-0.29694	0.55450	17.2	13111	100
2025-5-24 9:8:32.791	WT901BLE68(801231B9234C)	-1.617	1.476	-0.427	-185.974	-61.707	6.775	136.58	66.77	35.73	43.512	-26.166	-20.972	-0.36862	-0.68436	-0.29694	0.55450	17.2	13111	100
2025-5-24 9:8:32.851	WT901BLE68(801231B9234C)	-1.171	1.324	-0.182	-189.880	-16.235	31.494	130.65	66.78	33.77	43.512	-26.166	-20.972	-0.36862	-0.68436	-0.29694	0.55450	17.2	13111	100
2025-5-24 9:8:32.852	WT901BLE68(801231B9234C)	-1.196	0.952	-0.096	-189.270	70.007	79.041	126.03	65.24	33.14	43.512	-26.166	-20.972	-0.36862	-0.68436	-0.29694	0.55450	17.2	13111	100
2025-5-24 9:8:32.882	WT901BLE68(801231B9234C)	-1.327	0.531	-0.012	-191.040	163.391	77.881	124.15	62.29	35.69	43.512	-26.166	-20.972	-0.36862	-0.68436	-0.29694	0.55450	17.2	13111	100
2025-5-24 9:8:32.883	WT901BLE68(801231B9234C)	-1.439	0.295	-0.115	-188.538	196.960	69.763	124.06	58.88	40.20	43.512	-26.166	-20.972	-0.36862	-0.68436	-0.29694	0.55450	17.2	13111	100
2025-5-24 9:8:32.911	WT901BLE68(801231B9234C)	-1.150	0.161	-0.135	-183.533	139.099	43.091	123.46	56.17	44.03	43.512	-26.166	-20.972	-0.36862	-0.68436	-0.29694	0.55450	17.2	13111	100
2025-5-24 9:8:32.912	WT901BLE68(801231B9234C)	-0.712	-0.254	-0.155	-193.359	76.599	83.374	120.60	54.03	45.38	43.512	-26.166	-20.972	-0.56070	-0.62997	-0.50455	0.18460	17.2	13111	100
2025-5-24 9:8:32.972	WT901BLE68(801231B9234C)	-0.750	-0.780	-0.303	-177.795	30.273	101.501	116.69	52.16	44.97	43.512	-26.166	-20.972	-0.56070	-0.62997	-0.50455	0.18460	17.2	13111	100
2025-5-24 9:8:32.973	WT901BLE68(801231B9234C)	-1.061	-1.502	-0.033	-111.206	49.316	80.872	113.99	50.38	44.63	43.512	-26.166	-20.972	-0.56070	-0.62997	-0.50455	0.18460	17.2	13111	100
2025-5-24 9:8:33.1	WT901BLE68(801231B9234C)	-0.595	-2.221	0.436	-43.213	-28.076	21.301	113.15	49.91	44.36	43.512	-26.166	-20.972	-0.56070	-0.62997	-0.50455	0.18460	17.2	13111	100
2025-5-24 9:8:33.1	WT901BLE68(801231B9234C)	0.077	-1.424	0.078	-3.540	-176.880	-25.818	111.01	51.61	40.85	43.512	-26.166	-20.972	-0.56070	-0.62997	-0.50455	0.18460	17.2	13111	100
2025-5-24 9:8:33.32	WT901BLE68(801231B9234C)	0.406	-1.202	-0.100	42.175	-197.449	-52.734	108.00	54.32	35.28	43.512	-26.166	-20.972	-0.56070	-0.62997	-0.50455	0.18460	17.2	13111	100
2025-5-24 9:8:33.32	WT901BLE68(801231B9234C)	0.152	-1.137	-0.203	108.032	-150.024	-77.393	106.83	57.18	30.75	43.512	-26.166	-20.972	-0.56070	-0.62997	-0.50455	0.18460	17.2	13111	100
2025-5-24 9:8:33.92	WT901BLE68(801231B9234C)	-0.255	-0.859	-0.149	187.195	-108.154	-93.079	108.57	60.17	28.06	43.512	-26.166	-20.972	-0.56070	-0.62997	-0.50455	0.18460	17.2	13111	100
2025-5-24 9:8:33.93	WT901BLE68(801231B9234C)	-0.637	-0.524	0.011	229.065	-65.491	-103.882	112.90	63.16	27.15	43.512	-26.166	-20.972	-0.56070	-0.62997	-0.50455	0.18460	17.2	13111	100
2025-5-24 9:8:33.121	WT901BLE68(801231B9234C)	-1.271	-0.379	-0.002	258.667	-27.405	-99.304	119.87	65.92	28.61	43.512	-26.166	-20.972	-0.56070	-0.62997	-0.50455	0.18460	17.2	13111	100
2025-5-24 9:8:33.121	WT901BLE68(801231B9234C)	-2.511	-0.146	-0.245	312.012	61.096	-88.928	130.89	67.51	33.45	43.218	-15.484	-24.108	-0.56070	-0.62997	-0.50455	0.18460	17.2	13111	100
2025-5-24 9:8:33.152	WT901BLE68(801231B9234C)	-3.534	0.846	-0.617	327.637	42.297	-34.729	142.68	67.77	38.72	43.218	-15.484	-24.108	-0.56070	-0.62997	-0.50455	0.18460	17.2	13111	100
2025-5-24 9:8:33.153	WT901BLE68(801231B9234C)	-3.283	1.817	-1.106	343.262	-43.335	15.991	149.50	68.23	38.64	43.218	-15.484	-24.108	-0.56070	-0.62997	-0.50455	0.18460	17.2	13111	100
2025-5-24 9:8:33.212	WT901BLE68(801231B9234C)	-2.215	1.986	-0.742	298.035	-145.935	-24.475	153.86	70.21	36.73	43.218	-15.484	-24.108	-0.56070	-0.62997	-0.50455	0.18460	17.2	13111	100
2025-5-24 9:8:33.212	WT901BLE68(801231B9234C)	-2.312	1.547	-0.387	269.714	-141.418	-51.880	157.32	73.39	34.48	43.218	-15.484	-24.108	-0.56070	-0.62997	-0.50455	0.18460	17.2	13111	100
2025-5-24 9:8:33.242	WT901BLE68(801231B9234C)	-1.402	1.223	0.005	174.133	-67.078	-104.919	164.27	75.38	37.69	43.218	-15.484	-24.108	-0.56070	-0.62997	-0.50455	0.18460	17.2	13111	100
2025-5-24 9:8:33.242	WT901BLE68(801231B9234C)	-1.027	1.030	0.081	131.470	-129.272	-24.109	169.18	77.88	40.14	43.218	-15.484	-24.108	-0.56070	-0.62997	-0.50455	0.18460	17.2	13111	100
2025-5-24 9:8:33.271	WT901BLE68(801231B9234C)	-1.114	0.705	0.103	54.016	-13.428	-77.881	173.66	79.31	43.47	43.218	-15.484	-24.108	-0.56070	-0.62997	-0.50455	0.18460	17.2	13111	100
2025-5-24 9:8:33.272	WT901BLE68(801231B9234C)	-0.731	0.269	0.105	8.667	81.909	-124.817	-177.05	78.13	52.83	43.218	-15.484	-24.108	-0.56070	-0.62997	-0.50455	0.18460	17.2	13111	100
2025-5-24 9:8:33.332	WT901BLE68(801231B9234C)	0.190	0.163	-0.063	-30.334	47.729	-150.635	-167.33	76.63	63.48	43.218	-15.484	-24.108	-0.56070	-0.62997	-0.50455	0.18460	17.2	13111	100
2025-5-24 9:8:33.332	WT901BLE68(801231B9234C)	0.923	0.049	-0.314	-9.338	101.257	-171.936	-159.30	74.39	72.65	43.218	-15.484	-24.108	-0.56070	-0.62997	-0.50455	0.18460	17.2	13111	100
2025-5-24 9:8:33.362	WT901BLE68(801231B9234C)	1.219	0.127	-0.575	5.676	167.603	-197.266	-153.65	70.35	79.07	43.218	-15.484	-24.108	-0.20715	-0.69983	-0.40524	0.55045	17.2	13111	100
2025-5-24 9:8:33.362	WT901BLE68(801231B9234C)	1.154	0.343	-0.615	41.443	229.431	-194.885	-150.67	64.87	82.31	43.218	-15.484	-24.108	-0.20715	-0.69983	-0.40524	0.55045	17.2	13111	100
2025-5-24 9:8:33.391	WT901BLE68(801231B9234C)	0.872	0.658	-0.562	27.710	251.526	-163.574	-150.24	58.62	82.70	43.218	-15.484	-24.108	-0.20715	-0.69983	-0.40524	0.55045	17.2	13111	100
2025-5-24 9:8:33.391	WT901BLE68(801231B9234C)	0.311	0.797	-0.362	-39.124	262.329	-115.662	-152.19	52.52	81.51	43.218	-15.484	-24.108	-0.20715	-0.69983	-0.40524	0.55045	17.2	13111	100
2025-5-24 9:8:33.451	WT901BLE68(801231B9234C)	-0.668	1.012	-0.145	-104.675	240.906	-75.073	-155.98	46.68	79.69	43.218	-15.484	-24.108	-0.20715	-0.69983	-0.40524	0.55045	17.2	13111	100
2025-5-24 9:8:33.451	WT901BLE68(801231B9234C)	-1.647	1.245	-0.376	-151.672	86.304	-55.847	-159.85	42.95	79.13	43.218	-15.484	-24.108	-0.20715	-0.69983	-0.40524	0.55045	17.2	13111	100
2025-5-24 9:8:33.482	WT901BLE68(801231B9234C)	-1.992	1.313	-0.914	-238.831	-91.919	-75.684	-163.80	42.79	80.69	43.218	-15.484	-24.108	-0.20715	-0.69983	-0.40524	0.55045	17.2	13111	100
2025-5-24 9:8:33.482	WT901BLE68(801231B9234C)	-1.201	1.058	-1.105	-301.453	-140.686	-23.865	-168.85	44.87	82.89	43.218	-15.484	-24.108	-0.20715	-0.69983	-0.40524	0.55045	17.2	13111	100
2025-5-24 9:8:33.511	WT901BLE68(801231B9234C)	-2.198	0.668	-1.123	-254.395	2.930	40.466	-175.39	45.88	82.44	43.218	-15.484	-24.108	-0.20715	-0.69983	-0.40524	0.55045	17.2	13111	100
2025-5-24 9:8:33.512	WT901BLE68(801231B9234C)	-2.820	0.579	-0.962	-252.563	38.696	15.442	178.47	44.95	81.79	43.218	-15.484	-24.108	-0.20715	-0.69983	-0.40524	0.55045	17.2	13111	100
2025-5-24 9:8:33.572	WT901BLE68(801231B9234C)	-2.065	0.500	-0.721	-280.579	-105.835	19.897	172.19	45.64	81.36	52.920	-3.038	2.352	-0.20715	-0.69983	-0.40524	0.55045	17.2	13111	100
2025-5-24 9:8:33.572	WT901BLE68(801231B9234C)	-1.441	0.227	-0.776	-293.762	-236.206	50.537	164.30	49.52	79.16	52.920	-3.038	2.352	-0.20715	-0.69983	-0.40524	0.55045	17.2	13111	100
2025-5-24 9:8:33.601	WT901BLE68(801231B9234C)	-0.856	-0.175	-1.193	-300.415	-159.180	103.394	154.62	52.94	74.75	52.920	-3.038	2.352	-0.20715	-0.69983	-0.40524	0.55045	17.2	13111	100
2025-5-24 9:8:33.601	WT901BLE68(801231B9234C)	-1.004	-0.858	-1.121	-250.854	14.832	136.780	145.69	52.42	70.56	52.920	-3.038	2.352	-0.20715	-0.69983	-0.40524	0.55045	17.2	13111	100
2025-5-24 9:8:33.631	WT901BLE68(801231B9234C)	-1.403	-1.277	-0.896	-149.963	61.646	129.272	140.34	50.05	68.33	52.920	-3.038	2.352	-0.20715	-0.69983	-0.40524	0.55045	17.2	13111	100
2025-5-24 9:8:33.631	WT901BLE68(801231B9234C)	-1.249	-1.048	-0.739	-66.772	-15.808	90.271	137.42	48.46	66.40	52.920	-3.038	2.352	-0.20715	-0.69983	-0.40524	0.55045	17.2	13111	100
2025-5-24 9:8:33.692	WT901BLE68(801231B9234C)	-0.654	-0.979	-0.506	-20.874	-109.863	63.232	134.98	48.71	63.36	52.920	-3.038	2.352	-0.20715	-0.69983	-0.40524	0.55045	17.2	13111	100
2025-5-24 9:8:33.692	WT901BLE68(801231B9234C)	0.439	-1.222	-0.238	30.273	-185.242	54.321	132.29	50.32	58.69	52.920	-3.038	2.352	-0.20715	-0.69983	-0.40524	0.55045	17.2	13111	100
2025-5-24 9:8:33.721	WT901BLE68(801231B9234C)	-0.505	-1.030	-0.307	83.923	-91.614	7.507	131.47	51.95	54.96	52.920	-3.038	2.352	-0.20715	-0.69983	-0.40524	0.55045	17.2	13111	100
2025-5-24 9:8:33.721	WT901BLE68(801231B9234C)	-1.327	-0.887	-0.051	138.000	10.559	-52.124	135.34	52.76	55.95	52.920	-3.038	2.352	-0.47787	-0.66141	-0.53668	0.21451	17.2	13111	100
2025-5-24 9:8:33.759	WT901BLE68(801231B9234C)	-0.552	-0.716	-0.057	150.696	-132.385	-78.003	139.63	54.77	56.68	52.920	-3.038	2.352	-0.47787	-0.66141	-0.53668	0.21451	17.2	13111	100
2025-5-24 9:8:33.759	WT901BLE68(801231B9234C)	0.107	-0.615	-0.375	178.284	-285.706	-65.186	141.15	59.56	53.65	52.920	-3.038	2.352	-0.47787	-0.66141	-0.53668	0.21451	17.2	13111	100
2025-5-24 9:8:33.811	WT901BLE68(801231B9234C)	0.087	-0.675	-0.520	234.924	-280.090	-78.979	142.22	65.07	49.30	52.920	-3.038	2.352	-0.47787	-0.66141	-0.53668	0.21451	17.2	13111	100
2025-5-24 9:8:33.812	WT901BLE68(801231B9234C)	-0.810	-0.456	-0.702	303.589	-165.100	-92.957	147.08	69.57	47.93	52.920	-3.038	2.352	-0.47787	-0.66141	-0.53668	0.21451	17.2	13111	100
2025-5-24 9:8:33.841	WT901BLE68(801231B9234C)	-2.246	-0.137	-0.806	369.446	-73.120	-105.530	158.32	72.17	52.03	52.920	-3.038	2.352	-0.47787	-0.66141	-0.53668	0.21451	17.2	13111	100
2025-5-24 9:8:33.841	WT901BLE68(801231B9234C)	-2.085	0.506	-0.349	385.376	-71.472	-100.098	172.77	73.78	58.86	52.920	-3.038	2.352	-0.47787	-0.66141	-0.53668	0.21451	17.2	13111	100
2025-5-24 9:8:33.902	WT901BLE68(801231B9234C)	-1.811	0.163	-0.231	305.115	-223.816	-11.719	-175.92	76.88	63.73	52.920	-3.038	2.352	-0.47787	-0.66141	-0.53668	0.21451	17.2	13111	100
2025-5-24 9:8:33.902	WT901BLE68(801231B9234C)	-2.099	1.539	-0.125	266.663	-188.049	-3.479	-166.16	81.17	68.07	52.920	-3.038	2.352	-0.47787	-0.66141	-0.53668	0.21451	17.2	13111	100
2025-5-24 9:8:33.931	WT901BLE68(801231B9234C)	-2.394	1.729	0.009	238.159	-70.740	-26.367	-155.91	83.13	73.49	52.920	-3.038	2.352	-0.47787	-0.66141	-0.53668	0.21451	17.2	13111	100
2025-5-24 9:8:33.932	WT901BLE68(801231B9234C)	-2.223	0.962	0.048	211.548	-121.155	-21.484	-142.33	84.30	83.16	42.140	-21.266	-25.186	-0.47787	-0.66141	-0.53668	0.21451	17.2	13111	100
2025-5-24 9:8:33.962	WT901BLE68(801231B9234C)	-0.987	0.560	-0.001	185.913	-206.299	-12.817	-106.42	86.33	115.78	42.140	-21.266	-25.186	-0.47787	-0.66141	-0.53668	0.21451	17.2	13111	100
2025-5-24 9:8:33.963	WT901BLE68(801231B9234C)	-0.578	0.680	0.247	171.021	-178.162	11.780	-53.55	85.75	165.63	42.140	-21.266	-25.186	-0.47787	-0.66141	-0.53668	0.21451	17.2	13111	100
2025-5-24 9:8:34.21	WT901BLE68(801231B9234C)	-0.733	0.458	0.440	137.390	-131.775	4.822	-29.39	84.02	-172.73	42.140	-21.266	-25.186	-0.47787	-0.66141	-0.53668	0.21451	17.2	13111	100
2025-5-24 9:8:34.21	WT901BLE68(801231B9234C)	-0.686	0.343	0.268	123.169	-162.842	-1.038	-17.41	81.46	-162.81	42.140	-21.266	-25.186	-0.47787	-0.66141	-0.53668	0.21451	17.2	13111	100
2025-5-24 9:8:34.53	WT901BLE68(801231B9234C)	0.018	0.431	-0.156	121.826	-187.561	-26.245	-11.07	78.13	-158.45	42.140	-21.266	-25.186	-0.47787	-0.66141	-0.53668	0.21451	17.2	13111	100
2025-5-24 9:8:34.53	WT901BLE68(801231B9234C)	0.731	0.510	-0.246	99.609	-175.476	-4.211	-7.32	74.86	-156.45	42.140	-21.266	-25.186	-0.47787	-0.66141	-0.53668	0.21451	17.2	13111	100
2025-5-24 9:8:34.83	WT901BLE68(801231B9234C)	0.899	0.336	-0.662	59.814	-152.649	22.156	-3.18	71.86	-153.21	42.140	-21.266	-25.186	-0.47787	-0.66141	-0.53668	0.21451	17.2	13111	100
2025-5-24 9:8:34.83	WT901BLE68(801231B9234C)	0.124	0.220	-0.653	24.109	-46.570	23.193	-0.51	70.60	-150.63	42.140	-21.266	-25.186	-0.47787	-0.66141	-0.53668	0.21451	17.2	13111	100
2025-5-24 9:8:34.141	WT901BLE68(801231B9234C)	-0.408	0.161	-0.437	11.169	47.424	35.767	2.49	71.65	-147.28	42.140	-21.266	-25.186	-0.47787	-0.66141	-0.53668	0.21451	17.2	13111	100
2025-5-24 9:8:34.141	WT901BLE68(801231B9234C)	-0.634	0.324	-0.424	1.892	144.348	26.184	6.21	74.47	-143.08	42.140	-21.266	-25.186	-0.47787	-0.66141	-0.53668	0.21451	17.2	13111	100
2025-5-24 9:8:34.172	WT901BLE68(801231B9234C)	-0.652	0.579	0.016	-45.837	222.107	2.136	10.52	78.95	-137.72	42.140	-21.266	-25.186	-0.22263	-0.62128	-0.16162	0.73364	17.2	13111	100
2025-5-24 9:8:34.173	WT901BLE68(801231B9234C)	-1.002	0.330	0.115	-102.905	218.384	31.860	22.03	83.55	-123.89	42.140	-21.266	-25.186	-0.22263	-0.62128	-0.16162	0.73364	17.2	13111	100
2025-5-24 9:8:34.201	WT901BLE68(801231B9234C)	-2.404	0.243	-0.286	-132.019	247.375	19.836	63.72	86.83	-79.18	42.140	-21.266	-25.186	-0.22263	-0.62128	-0.16162	0.73364	17.2	13111	100
2025-5-24 9:8:34.201	WT901BLE68(801231B9234C)	-1.800	0.353	-0.414	-160.889	242.981	-23.926	133.00	85.61	-6.56	42.140	-21.266	-25.186	-0.22263	-0.62128	-0.16162	0.73364	17.2	13111	100
2025-5-24 9:8:34.261	WT901BLE68(801231B9234C)	-1.096	2.593	1.143	-142.822	72.876	-37.720	152.98	83.35	16.96	42.140	-21.266	-25.186	-0.22263	-0.62128	-0.16162	0.73364	17.2	13111	100
2025-5-24 9:8:34.261	WT901BLE68(801231B9234C)	-2.242	1.626	0.353	-183.533	62.195	53.040	141.80	82.23	9.31	42.140	-21.266	-25.186	-0.22263	-0.62128	-0.16162	0.73364	17.2	13111	100
2025-5-24 9:8:34.292	WT901BLE68(801231B9234C)	-2.284	0.906	0.673	-201.355	158.264	8.911	145.38	79.67	17.12	42.140	-21.266	-25.186	-0.22263	-0.62128	-0.16162	0.73364	17.2	13111	100
2025-5-24 9:8:34.292	WT901BLE68(801231B9234C)	-2.038	0.588	0.639	-211.975	157.837	68.665	143.12	76.49	19.36	42.140	-21.266	-25.186	-0.22263	-0.62128	-0.16162	0.73364	17.2	13111	100
2025-5-24 9:8:34.321	WT901BLE68(801231B9234C)	-1.354	0.234	0.639	-179.138	81.970	40.283	140.23	74.05	20.49	42.140	-21.266	-25.186	-0.22263	-0.62128	-0.16162	0.73364	17.2	13111	100
2025-5-24 9:8:34.322	WT901BLE68(801231B9234C)	-1.140	-0.035	0.345	-152.222	62.439	33.691	136.92	72.83	20.32	42.140	-21.266	-25.186	-0.22263	-0.62128	-0.16162	0.73364	17.2	13111	100
2025-5-24 9:8:34.381	WT901BLE68(801231B9234C)	-1.106	-0.402	0.286	-124.268	100.403	0.061	136.42	71.60	22.56	39.396	-26.166	-25.872	-0.22263	-0.62128	-0.16162	0.73364	17.2	13111	100
2025-5-24 9:8:34.381	WT901BLE68(801231B9234C)	-0.394	-0.592	0.575	-100.159	47.852	-20.813	137.33	70.91	25.61	39.396	-26.166	-25.872	-0.22263	-0.62128	-0.16162	0.73364	17.2	13111	100
2025-5-24 9:8:34.411	WT901BLE68(801231B9234C)	-0.057	-0.224	0.420	-71.106	-40.588	-10.193	135.52	71.78	24.97	39.396	-26.166	-25.872	-0.22263	-0.62128	-0.16162	0.73364	17.2	13111	100
2025-5-24 9:8:34.411	WT901BLE68(801231B9234C)	-0.542	-0.026	0.042	-61.890	-54.016	-22.827	132.96	73.08	23.19	39.396	-26.166	-25.872	-0.22263	-0.62128	-0.16162	0.73364	17.2	13111	100
2025-5-24 9:8:34.441	WT901BLE68(801231B9234C)	-0.582	-0.274	-0.166	-14.954	-86.365	-42.542	129.39	74.86	19.81	39.396	-26.166	-25.872	-0.22263	-0.62128	-0.16162	0.73364	17.2	13111	100
2025-5-24 9:8:34.441	WT901BLE68(801231B9234C)	-0.375	0.000	-0.207	31.799	-108.521	-76.843	126.93	77.40	16.58	39.396	-26.166	-25.872	-0.22263	-0.62128	-0.16162	0.73364	17.2	13111	100
2025-5-24 9:8:34.502	WT901BLE68(801231B9234C)	-0.262	0.058	-0.226	51.819	-146.973	-76.294	121.12	80.36	9.45	39.396	-26.166	-25.872	-0.22263	-0.62128	-0.16162	0.73364	17.2	13111	100
2025-5-24 9:8:34.502	WT901BLE68(801231B9234C)	-0.203	0.005	-0.208	62.256	-142.578	-79.651	108.93	83.19	-4.23	39.396	-26.166	-25.872	-0.22263	-0.62128	-0.16162	0.73364	17.2	13111	100
2025-5-24 9:8:34.531	WT901BLE68(801231B9234C)	-0.357	-0.125	-0.160	76.477	-124.207	-78.796	89.24	85.27	-25.55	39.396	-26.166	-25.872	-0.22263	-0.62128	-0.16162	0.73364	17.2	13111	100
2025-5-24 9:8:34.532	WT901BLE68(801231B9234C)	-0.729	-0.160	0.069	105.896	-100.159	-83.801	59.45	86.39	-57.42	39.396	-26.166	-25.872	-0.38000	-0.60135	-0.33517	0.61768	17.2	13111	100
2025-5-24 9:8:34.562	WT901BLE68(801231B9234C)	-1.317	0.133	0.214	109.070	-22.888	-64.453	34.60	86.80	-84.63	39.396	-26.166	-25.872	-0.38000	-0.60135	-0.33517	0.61768	17.2	13111	100
2025-5-24 9:8:34.562	WT901BLE68(801231B9234C)	-2.159	0.305	0.439	89.417	78.003	-59.021	25.22	88.09	-95.94	39.396	-26.166	-25.872	-0.38000	-0.60135	-0.33517	0.61768	17.2	13111	100
2025-5-24 9:8:34.621	WT901BLE68(801231B9234C)	-2.308	0.525	0.418	93.445	94.421	-65.125	-17.59	90.20	-140.49	39.396	-26.166	-25.872	-0.38000	-0.60135	-0.33517	0.61768	17.2	13111	100
2025-5-24 9:8:34.621	WT901BLE68(801231B9234C)	-1.908	0.697	0.418	109.985	42.297	-48.889	-123.63	89.19	111.49	39.396	-26.166	-25.872	-0.38000	-0.60135	-0.33517	0.61768	17.2	13111	100
2025-5-24 9:8:34.651	WT901BLE68(801231B9234C)	-1.584	0.613	0.468	119.202	6.409	-43.213	-118.08	88.48	114.82	39.396	-26.166	-25.872	-0.38000	-0.60135	-0.33517	0.61768	17.2	13111	100
2025-5-24 9:8:34.651	WT901BLE68(801231B9234C)	-1.313	0.592	0.498	117.188	-4.395	-31.860	-106.72	88.00	124.00	39.396	-26.166	-25.872	-0.38000	-0.60135	-0.33517	0.61768	17.2	13111	100
2025-5-24 9:8:34.680	WT901BLE68(801231B9234C)	-0.688	0.603	0.793	95.337	22.522	-9.338	-104.93	87.90	123.91	39.396	-26.166	-25.872	-0.38000	-0.60135	-0.33517	0.61768	17.2	13111	100
2025-5-24 9:8:34.680	WT901BLE68(801231B9234C)	-0.584	0.611	0.996	63.110	84.290	21.240	-126.08	87.95	101.38	39.396	-26.166	-25.872	-0.38000	-0.60135	-0.33517	0.61768	17.2	13111	100
2025-5-24 9:8:34.742	WT901BLE68(801231B9234C)	-0.661	0.562	0.808	16.113	64.209	31.677	-158.07	87.32	68.82	39.396	-26.166	-25.872	-0.38000	-0.60135	-0.33517	0.61768	17.2	13111	100
2025-5-24 9:8:34.742	WT901BLE68(801231B9234C)	-0.047	0.551	0.730	-19.348	5.798	29.480	-172.92	87.37	54.23	39.396	-26.166	-25.872	-0.38000	-0.60135	-0.33517	0.61768	17.2	13111	100
2025-5-24 9:8:34.772	WT901BLE68(801231B9234C)	0.737	0.359	0.033	-34.119	-14.343	57.617	161.24	87.81	28.99	39.788	-23.814	-27.538	-0.38000	-0.60135	-0.33517	0.61768	17.2	13111	100
2025-5-24 9:8:34.773	WT901BLE68(801231B9234C)	0.297	0.106	-0.098	-88.684	81.970	76.721	139.06	86.60	8.31	39.788	-23.814	-27.538	-0.38000	-0.60135	-0.33517	0.61768	17.2	13111	100
2025-5-24 9:8:34.801	WT901BLE68(801231B9234C)	0.425	2.469	-0.394	-97.839	185.608	28.625	146.73	82.84	18.90	39.788	-23.814	-27.538	-0.38000	-0.60135	-0.33517	0.61768	17.2	13111	100
2025-5-24 9:8:34.801	WT901BLE68(801231B9234C)	0.301	0.635	-0.669	-153.503	195.007	74.524	147.96	78.50	23.85	39.788	-23.814	-27.538	-0.38000	-0.60135	-0.33517	0.61768	17.2	13111	100
2025-5-24 9:8:34.861	WT901BLE68(801231B9234C)	-0.288	0.711	-0.798	-185.059	206.665	56.641	147.27	73.76	27.56	39.788	-23.814	-27.538	-0.38000	-0.60135	-0.33517	0.61768	17.2	13111	100
2025-5-24 9:8:34.861	WT901BLE68(801231B9234C)	-1.049	0.920	-0.922	-224.731	202.576	24.475	146.86	69.08	32.24	39.788	-23.814	-27.538	-0.38000	-0.60135	-0.33517	0.61768	17.2	13111	100
2025-5-24 9:8:34.891	WT901BLE68(801231B9234C)	-2.015	1.019	-0.906	-264.832	132.935	-12.939	145.53	65.71	36.51	39.788	-23.814	-27.538	-0.38000	-0.60135	-0.33517	0.61768	17.2	13111	100
2025-5-24 9:8:34.891	WT901BLE68(801231B9234C)	-2.127	1.192	-0.781	-324.585	28.931	-36.804	141.87	64.45	39.51	39.788	-23.814	-27.538	-0.38000	-0.60135	-0.33517	0.61768	17.2	13111	100
2025-5-24 9:8:34.922	WT901BLE68(801231B9234C)	-1.623	1.244	-0.743	-341.248	-55.908	14.893	134.42	64.73	39.23	39.788	-23.814	-27.538	-0.38000	-0.60135	-0.33517	0.61768	17.2	13111	100
2025-5-24 9:8:34.922	WT901BLE68(801231B9234C)	-1.817	1.083	-0.547	-363.098	-30.823	35.278	124.71	64.57	36.57	39.788	-23.814	-27.538	-0.38000	-0.60135	-0.33517	0.61768	17.2	13111	100
2025-5-24 9:8:35.12	WT901BLE68(801231B9234C)	-1.945	1.077	-0.272	-366.699	90.759	1.282	118.68	63.59	38.07	39.788	-23.814	-27.538	-0.56949	-0.59305	-0.50461	0.26309	17.2	13111	100
2025-5-24 9:8:35.12	WT901BLE68(801231B9234C)	-1.663	1.050	-0.162	-379.578	114.807	-7.813	115.13	62.53	42.62	39.788	-23.814	-27.538	-0.56949	-0.59305	-0.50461	0.26309	17.2	13111	100
2025-5-24 9:8:35.13	WT901BLE68(801231B9234C)	-1.367	0.915	-0.358	-374.451	102.722	12.451	111.11	61.50	46.61	39.788	-23.814	-27.538	-0.56949	-0.59305	-0.50461	0.26309	17.2	13111	100
2025-5-24 9:8:35.13	WT901BLE68(801231B9234C)	-1.247	0.663	-0.697	-375.732	105.652	26.855	106.79	60.33	50.25	39.788	-23.814	-27.538	-0.56949	-0.59305	-0.50461	0.26309	17.2	13111	100
2025-5-24 9:8:35.41	WT901BLE68(801231B9234C)	-0.909	0.133	-0.810	-350.098	101.440	47.485	102.76	58.97	53.78	39.788	-23.814	-27.538	-0.56949	-0.59305	-0.50461	0.26309	17.2	13111	100
2025-5-24 9:8:35.41	WT901BLE68(801231B9234C)	-0.492	-0.134	-0.881	-303.650	90.637	81.482	99.14	57.29	56.82	39.788	-23.814	-27.538	-0.56949	-0.59305	-0.50461	0.26309	17.2	13111	100
2025-5-24 9:8:35.101	WT901BLE68(801231B9234C)	-0.357	-0.364	-1.094	-260.315	66.772	113.403	95.83	55.10	59.06	39.788	-23.814	-27.538	-0.56949	-0.59305	-0.50461	0.26309	17.2	13111	100
2025-5-24 9:8:35.101	WT901BLE68(801231B9234C)	-0.758	-0.749	-1.069	-190.430	60.181	138.611	93.41	52.47	60.88	39.788	-23.814	-27.538	-0.56949	-0.59305	-0.50461	0.26309	17.2	13111	100
2025-5-24 9:8:35.132	WT901BLE68(801231B9234C)	-0.569	-0.863	-0.621	-76.050	46.692	165.161	92.82	49.44	62.43	39.788	-23.814	-27.538	-0.56949	-0.59305	-0.50461	0.26309	17.2	13111	100
2025-5-24 9:8:35.132	WT901BLE68(801231B9234C)	0.002	-0.715	-0.271	-5.249	14.587	192.017	93.38	45.93	62.89	39.788	-23.814	-27.538	-0.56949	-0.59305	-0.50461	0.26309	17.2	13111	100
2025-5-24 9:8:35.162	WT901BLE68(801231B9234C)	-0.598	-1.261	-0.345	14.221	34.668	159.180	95.01	42.42	63.46	39.788	-23.814	-27.538	-0.56949	-0.59305	-0.50461	0.26309	17.2	13111	100
2025-5-24 9:8:35.162	WT901BLE68(801231B9234C)	-1.240	-1.393	-0.585	98.755	15.808	135.132	97.97	39.80	64.01	48.020	-8.918	-10.290	-0.56949	-0.59305	-0.50461	0.26309	17.2	13111	100
2025-5-24 9:8:35.222	WT901BLE68(801231B9234C)	-1.275	-1.407	-0.540	198.486	-82.764	94.910	101.36	37.91	62.44	48.020	-8.918	-10.290	-0.56949	-0.59305	-0.50461	0.26309	17.2	13111	100
2025-5-24 9:8:35.222	WT901BLE68(801231B9234C)	-1.125	-1.164	-0.277	249.512	-150.879	15.564	104.93	37.99	59.10	48.020	-8.918	-10.290	-0.56949	-0.59305	-0.50461	0.26309	17.2	13111	100
2025-5-24 9:8:35.281	WT901BLE68(801231B9234C)	-1.386	-0.796	0.062	275.146	-167.175	-56.030	109.13	39.82	55.45	48.020	-8.918	-10.290	-0.56949	-0.59305	-0.50461	0.26309	17.2	13111	100
2025-5-24 9:8:35.282	WT901BLE68(801231B9234C)	-2.291	-0.368	-0.259	281.250	-185.059	-127.380	113.65	43.28	52.15	48.020	-8.918	-10.290	-0.56949	-0.59305	-0.50461	0.26309	17.2	13111	100
2025-5-24 9:8:35.283	WT901BLE68(801231B9234C)	-2.905	-0.203	-0.705	298.523	-202.515	-207.153	118.53	48.54	49.54	48.020	-8.918	-10.290	-0.56949	-0.59305	-0.50461	0.26309	17.2	13111	100
2025-5-24 9:8:35.283	WT901BLE68(801231B9234C)	-2.713	1.634	-0.141	242.737	-243.896	-227.722	123.50	54.93	47.37	48.020	-8.918	-10.290	-0.56949	-0.59305	-0.50461	0.26309	17.2	13111	100
2025-5-24 9:8:35.342	WT901BLE68(801231B9234C)	-2.627	1.384	-0.292	204.773	-290.405	-189.697	125.46	61.65	43.04	48.020	-8.918	-10.290	-0.56949	-0.59305	-0.50461	0.26309	17.2	13111	100
2025-5-24 9:8:35.342	WT901BLE68(801231B9234C)	-2.353	1.520	-0.288	154.175	-233.582	-193.542	125.05	67.97	38.50	48.020	-8.918	-10.290	-0.56949	-0.59305	-0.50461	0.26309	17.2	13111	100
2025-5-24 9:8:35.374	WT901BLE68(801231B9234C)	-1.686	1.959	-0.365	128.479	-170.532	-194.092	125.67	73.44	35.85	48.020	-8.918	-10.290	-0.50931	-0.59985	-0.47650	0.39197	17.2	13111	100
2025-5-24 9:8:35.374	WT901BLE68(801231B9234C)	-1.312	1.612	-0.451	111.389	-47.546	-171.448	130.45	77.42	38.39	48.020	-8.918	-10.290	-0.50931	-0.59985	-0.47650	0.39197	17.2	13111	100
2025-5-24 9:8:35.432	WT901BLE68(801231B9234C)	-1.080	1.404	-0.293	111.755	37.720	-144.531	143.98	79.16	50.06	48.020	-8.918	-10.290	-0.50931	-0.59985	-0.47650	0.39197	17.2	13111	100
2025-5-24 9:8:35.432	WT901BLE68(801231B9234C)	-0.583	1.209	-0.156	130.981	31.921	-109.131	158.36	79.53	62.44	48.020	-8.918	-10.290	-0.50931	-0.59985	-0.47650	0.39197	17.2	13111	100
2025-5-24 9:8:35.461	WT901BLE68(801231B9234C)	-0.267	0.967	-0.047	131.958	7.874	-70.496	168.22	79.53	70.09	48.020	-8.918	-10.290	-0.50931	-0.59985	-0.47650	0.39197	17.2	13111	100
2025-5-24 9:8:35.461	WT901BLE68(801231B9234C)	-0.020	0.812	-0.048	118.896	-1.526	-51.270	174.80	79.53	74.66	48.020	-8.918	-10.290	-0.50931	-0.59985	-0.47650	0.39197	17.2	13111	100
2025-5-24 9:8:35.492	WT901BLE68(801231B9234C)	0.205	0.711	-0.104	106.934	-8.240	-38.818	179.42	79.54	77.60	48.020	-8.918	-10.290	-0.50931	-0.59985	-0.47650	0.39197	17.2	13111	100
2025-5-24 9:8:35.492	WT901BLE68(801231B9234C)	0.407	0.707	-0.134	85.449	-15.564	-34.180	-177.39	79.59	79.48	48.020	-8.918	-10.290	-0.50931	-0.59985	-0.47650	0.39197	17.2	13111	100
2025-5-24 9:8:35.552	WT901BLE68(801231B9234C)	0.583	0.755	-0.165	54.626	-26.062	-27.649	-175.37	79.78	80.73	48.020	-8.918	-10.290	-0.50931	-0.59985	-0.47650	0.39197	17.2	13111	100
2025-5-24 9:8:35.552	WT901BLE68(801231B9234C)	0.606	0.779	-0.153	2.014	-9.521	-6.165	-176.46	79.84	79.78	48.020	-8.918	-10.290	-0.50931	-0.59985	-0.47650	0.39197	17.2	13111	100
2025-5-24 9:8:35.583	WT901BLE68(801231B9234C)	0.399	0.675	-0.178	-41.870	26.855	13.184	178.92	79.17	76.20	42.728	-8.722	-25.186	-0.50931	-0.59985	-0.47650	0.39197	17.2	13111	100
2025-5-24 9:8:35.584	WT901BLE68(801231B9234C)	0.023	0.729	-0.117	-81.726	35.522	30.212	172.33	77.90	71.39	42.728	-8.722	-25.186	-0.50931	-0.59985	-0.47650	0.39197	17.2	13111	100
2025-5-24 9:8:35.614	WT901BLE68(801231B9234C)	-0.687	0.951	-0.009	-133.728	15.259	51.514	164.03	76.64	65.74	42.728	-8.722	-25.186	-0.50931	-0.59985	-0.47650	0.39197	17.2	13111	100
2025-5-24 9:8:35.614	WT901BLE68(801231B9234C)	-2.055	1.084	-0.108	-205.078	-7.141	54.626	154.45	75.56	60.06	42.728	-8.722	-25.186	-0.50931	-0.59985	-0.47650	0.39197	17.2	13111	100
2025-5-24 9:8:35.702	WT901BLE68(801231B9234C)	-2.352	1.252	-0.238	-286.438	-75.562	73.425	142.21	75.11	53.25	42.728	-8.722	-25.186	-0.50931	-0.59985	-0.47650	0.39197	17.2	13111	100
2025-5-24 9:8:35.702	WT901BLE68(801231B9234C)	-1.684	0.958	0.064	-265.747	-142.151	203.430	122.74	73.99	39.28	42.728	-8.722	-25.186	-0.50931	-0.59985	-0.47650	0.39197	17.2	13111	100
2025-5-24 9:8:36.63	WT901BLE68(801231B9234C)	-2.520	0.758	0.269	-228.455	-99.426	232.910	104.34	70.31	25.42	42.728	-8.722	-25.186	-0.50931	-0.59985	-0.47650	0.39197	17.2	13111	100
2025-5-24 9:8:36.63	WT901BLE68(801231B9234C)	-2.336	1.043	0.614	-242.371	25.696	145.996	97.49	66.83	23.49	42.728	-8.722	-25.186	-0.50931	-0.59985	-0.47650	0.39197	17.2	13111	100
2025-5-24 9:8:36.64	WT901BLE68(801231B9234C)	-1.865	0.681	0.617	-203.857	-2.747	178.467	92.80	63.38	23.37	42.728	-8.722	-25.186	-0.50931	-0.59985	-0.47650	0.39197	17.2	13111	100
2025-5-24 9:8:36.64	WT901BLE68(801231B9234C)	-1.578	0.375	0.393	-182.922	12.573	176.331	88.71	59.80	23.19	42.728	-8.722	-25.186	-0.50931	-0.59985	-0.47650	0.39197	17.2	13111	100
2025-5-24 9:8:36.65	WT901BLE68(801231B9234C)	-1.192	0.148	0.180	-174.377	47.668	174.927	86.34	56.41	24.69	42.728	-8.722	-25.186	-0.50931	-0.59985	-0.47650	0.39197	17.2	13111	100
2025-5-24 9:8:36.65	WT901BLE68(801231B9234C)	-0.910	-0.021	-0.013	-167.725	66.650	174.500	84.85	53.16	26.97	42.728	-8.722	-25.186	-0.50931	-0.59985	-0.47650	0.39197	17.2	13111	100
2025-5-24 9:8:36.66	WT901BLE68(801231B9234C)	-0.777	-0.248	-0.128	-169.861	85.388	166.382	83.74	50.16	29.70	42.728	-8.722	-25.186	-0.50931	-0.59985	-0.47650	0.39197	17.2	13111	100
2025-5-24 9:8:36.66	WT901BLE68(801231B9234C)	-0.718	-0.663	-0.118	-166.870	96.252	167.969	82.86	47.33	32.74	42.728	-8.722	-25.186	-0.50931	-0.59985	-0.47650	0.39197	17.2	13111	100
2025-5-24 9:8:36.66	WT901BLE68(801231B9234C)	-0.586	-0.648	-0.124	-142.090	83.923	161.438	82.30	44.71	35.47	42.728	-8.722	-25.186	-0.50931	-0.59985	-0.47650	0.39197	17.2	13111	100
2025-5-24 9:8:36.67	WT901BLE68(801231B9234C)	-0.501	-0.943	-0.015	-122.009	70.190	148.743	81.92	42.34	37.59	42.728	-8.722	-25.186	-0.50931	-0.59985	-0.47650	0.39197	17.2	13111	100
2025-5-24 9:8:36.67	WT901BLE68(801231B9234C)	-0.473	-1.164	0.025	-98.999	80.444	97.900	81.89	40.65	39.47	42.728	-8.722	-25.186	-0.50931	-0.59985	-0.47650	0.39197	17.2	13111	100
2025-5-24 9:8:36.67	WT901BLE68(801231B9234C)	-0.385	-1.413	-0.017	-69.580	126.831	23.682	82.95	40.44	42.04	42.728	-8.722	-25.186	-0.50931	-0.59985	-0.47650	0.39197	17.2	13111	100
2025-5-24 9:8:36.68	WT901BLE68(801231B9234C)	-0.894	-1.390	-0.274	3.174	202.942	-27.832	86.23	41.67	46.29	42.728	-8.722	-25.186	-0.50931	-0.59985	-0.47650	0.39197	17.2	13111	100
2025-5-24 9:8:36.68	WT901BLE68(801231B9234C)	-1.317	-1.236	-0.352	53.650	218.140	-94.299	92.01	43.73	52.28	42.728	-8.722	-25.186	-0.50931	-0.59985	-0.47650	0.39197	17.2	13111	100
2025-5-24 9:8:36.93	WT901BLE68(801231B9234C)	-1.364	-0.971	-0.231	101.074	92.224	-120.605	97.98	46.14	56.74	42.728	-8.722	-25.186	-0.50931	-0.59985	-0.47650	0.39197	17.2	13111	100
2025-5-24 9:8:36.93	WT901BLE68(801231B9234C)	-2.006	-0.640	-0.385	141.052	-28.870	-146.179	102.44	49.16	57.79	42.728	-8.722	-25.186	-0.50931	-0.59985	-0.47650	0.39197	17.2	13111	100
2025-5-24 9:8:36.94	WT901BLE68(801231B9234C)	-2.340	-0.390	-0.573	165.283	-20.142	-202.087	107.19	53.12	58.44	42.728	-8.722	-25.186	-0.50931	-0.59985	-0.47650	0.39197	17.2	13111	100
2025-5-24 9:8:36.94	WT901BLE68(801231B9234C)	-2.475	-0.172	-0.764	205.200	-1.221	-225.586	114.29	57.54	61.20	42.728	-8.722	-25.186	-0.50931	-0.59985	-0.47650	0.39197	17.2	13111	100
2025-5-24 9:8:36.95	WT901BLE68(801231B9234C)	-3.293	0.119	-1.008	231.201	-9.583	-205.627	122.92	61.62	64.99	42.728	-8.722	-25.186	-0.50931	-0.59985	-0.47650	0.39197	17.2	13111	100
2025-5-24 9:8:36.95	WT901BLE68(801231B9234C)	-3.188	0.471	-1.003	240.356	-24.170	-197.571	133.00	65.07	70.24	42.728	-8.722	-25.186	-0.50931	-0.59985	-0.47650	0.39197	17.2	13111	100
2025-5-24 9:8:36.96	WT901BLE68(801231B9234C)	-2.283	1.191	-0.831	251.404	-78.613	-165.222	142.61	68.46	74.86	42.728	-8.722	-25.186	-0.50931	-0.59985	-0.47650	0.39197	17.2	13111	100
2025-5-24 9:8:36.96	WT901BLE68(801231B9234C)	-1.756	1.369	-0.640	220.520	-63.782	-171.265	152.83	71.55	80.67	45.276	1.862	-15.288	-0.50931	-0.59985	-0.47650	0.39197	17.2	13111	100
2025-5-24 9:8:36.152	WT901BLE68(801231B9234C)	-1.324	1.228	-0.461	210.388	-29.663	-181.274	166.55	73.49	90.67	45.276	1.862	-15.288	-0.50931	-0.59985	-0.47650	0.39197	17.2	13111	100
2025-5-24 9:8:36.152	WT901BLE68(801231B9234C)	-0.815	1.296	-0.243	202.820	-42.725	-150.330	-179.09	74.50	101.52	45.276	1.862	-15.288	-0.50931	-0.59985	-0.47650	0.39197	17.2	13111	100
2025-5-24 9:8:36.212	WT901BLE68(801231B9234C)	-0.455	1.172	-0.187	210.022	-53.284	-111.206	-166.64	75.21	110.43	45.276	1.862	-15.288	-0.43951	-0.51047	-0.60645	0.42233	17.2	13111	100
2025-5-24 9:8:36.212	WT901BLE68(801231B9234C)	-0.127	1.141	-0.154	213.257	-45.105	-90.332	-155.63	75.53	117.80	45.276	1.862	-15.288	-0.43951	-0.51047	-0.60645	0.42233	17.2	13111	100
2025-5-24 9:8:36.213	WT901BLE68(801231B9234C)	0.170	1.157	-0.155	190.918	-36.438	-69.031	-146.67	75.59	123.22	45.276	1.862	-15.288	-0.43951	-0.51047	-0.60645	0.42233	17.2	13111	100
2025-5-24 9:8:36.213	WT901BLE68(801231B9234C)	0.452	1.087	-0.096	192.261	-27.161	-52.551	-139.87	75.47	126.84	45.276	1.862	-15.288	-0.43951	-0.51047	-0.60645	0.42233	17.2	13111	100
2025-5-24 9:8:36.302	WT901BLE68(801231B9234C)	0.537	1.180	-0.075	174.988	-11.902	-38.330	-135.21	75.32	128.46	45.276	1.862	-15.288	-0.43951	-0.51047	-0.60645	0.42233	17.2	13111	100
2025-5-24 9:8:36.303	WT901BLE68(801231B9234C)	0.430	1.224	-0.043	106.140	5.615	-36.743	-133.48	74.93	128.25	45.276	1.862	-15.288	-0.43951	-0.51047	-0.60645	0.42233	17.2	13111	100
2025-5-24 9:8:36.303	WT901BLE68(801231B9234C)	0.137	1.128	-0.042	101.990	29.419	0.977	-134.66	74.82	125.38	45.276	1.862	-15.288	-0.43951	-0.51047	-0.60645	0.42233	17.2	13111	100
2025-5-24 9:8:36.304	WT901BLE68(801231B9234C)	-0.016	1.044	-0.141	35.828	0.000	36.011	-138.56	75.01	120.83	45.276	1.862	-15.288	-0.43951	-0.51047	-0.60645	0.42233	17.2	13111	100
2025-5-24 9:8:36.334	WT901BLE68(801231B9234C)	-0.301	1.028	-0.015	-21.667	-22.705	84.045	-145.32	76.22	114.47	45.276	1.862	-15.288	-0.43951	-0.51047	-0.60645	0.42233	17.2	13111	100
2025-5-24 9:8:36.334	WT901BLE68(801231B9234C)	-1.136	1.010	0.066	-88.318	-32.166	140.137	-157.75	77.88	103.60	45.276	1.862	-15.288	-0.43951	-0.51047	-0.60645	0.42233	17.2	13111	100
2025-5-24 9:8:36.392	WT901BLE68(801231B9234C)	-2.284	1.108	-0.194	-157.410	-38.574	194.824	-179.91	79.06	84.25	40.474	0.294	-28.322	-0.43951	-0.51047	-0.60645	0.42233	17.2	13111	100
2025-5-24 9:8:36.392	WT901BLE68(801231B9234C)	-2.123	1.083	-0.122	-205.383	-0.122	243.896	152.53	78.06	60.59	40.474	0.294	-28.322	-0.43951	-0.51047	-0.60645	0.42233	17.2	13111	100
2025-5-24 9:8:36.422	WT901BLE68(801231B9234C)	-2.639	0.899	0.168	-178.162	62.622	313.232	131.54	73.31	43.31	40.474	0.294	-28.322	-0.43951	-0.51047	-0.60645	0.42233	17.2	13111	100
2025-5-24 9:8:36.422	WT901BLE68(801231B9234C)	-3.628	0.876	0.182	-203.552	202.271	211.121	124.66	67.35	40.62	40.474	0.294	-28.322	-0.43951	-0.51047	-0.60645	0.42233	17.2	13111	100
2025-5-24 9:8:36.751	WT901BLE68(801231B9234C)	-2.842	0.862	0.316	-216.797	187.866	184.570	123.06	61.66	43.88	40.474	0.294	-28.322	-0.43951	-0.51047	-0.60645	0.42233	17.2	13111	100
2025-5-24 9:8:36.751	WT901BLE68(801231B9234C)	-2.213	0.074	0.054	-189.880	64.331	218.811	117.90	57.08	42.79	40.474	0.294	-28.322	-0.43951	-0.51047	-0.60645	0.42233	17.2	13111	100
2025-5-24 9:8:36.752	WT901BLE68(801231B9234C)	-1.736	-0.278	0.026	-174.011	57.922	206.177	112.94	52.95	41.28	40.474	0.294	-28.322	-0.43951	-0.51047	-0.60645	0.42233	17.2	13111	100
2025-5-24 9:8:36.752	WT901BLE68(801231B9234C)	-1.407	-0.444	0.078	-155.334	56.458	188.843	109.12	49.19	40.46	40.474	0.294	-28.322	-0.43951	-0.51047	-0.60645	0.42233	17.2	13111	100
2025-5-24 9:8:36.753	WT901BLE68(801231B9234C)	-1.105	-0.636	0.122	-146.912	70.923	144.775	106.36	46.10	40.54	40.474	0.294	-28.322	-0.43951	-0.51047	-0.60645	0.42233	17.2	13111	100
2025-5-24 9:8:36.753	WT901BLE68(801231B9234C)	-0.864	-0.857	0.224	-129.822	74.280	98.145	104.57	43.93	41.33	40.474	0.294	-28.322	-0.43951	-0.51047	-0.60645	0.42233	17.2	13111	100
2025-5-24 9:8:36.753	WT901BLE68(801231B9234C)	-0.560	-1.482	0.418	-111.328	40.466	61.523	103.11	42.69	41.93	40.474	0.294	-28.322	-0.43951	-0.51047	-0.60645	0.42233	17.2	13111	100
2025-5-24 9:8:36.754	WT901BLE68(801231B9234C)	-0.272	-1.563	0.399	-77.087	-14.832	7.874	101.83	42.67	41.48	40.474	0.294	-28.322	-0.43951	-0.51047	-0.60645	0.42233	17.2	13111	100
2025-5-24 9:8:36.756	WT901BLE68(801231B9234C)	-0.105	-1.770	0.346	-41.260	-50.537	-49.255	100.68	43.96	40.23	40.474	0.294	-28.322	-0.43951	-0.51047	-0.60645	0.42233	17.2	13111	100
2025-5-24 9:8:36.756	WT901BLE68(801231B9234C)	-0.191	-1.544	0.243	5.249	-61.340	-103.271	100.52	46.43	38.91	40.474	0.294	-28.322	-0.43951	-0.51047	-0.60645	0.42233	17.2	13111	100
2025-5-24 9:8:36.757	WT901BLE68(801231B9234C)	-0.383	-1.223	0.156	41.382	-65.552	-143.860	101.29	49.84	37.79	40.474	0.294	-28.322	-0.43951	-0.51047	-0.60645	0.42233	17.2	13111	100
2025-5-24 9:8:36.757	WT901BLE68(801231B9234C)	-0.557	-1.054	0.138	81.848	-81.665	-176.453	102.82	54.04	36.75	40.474	0.294	-28.322	-0.43951	-0.51047	-0.60645	0.42233	17.2	13111	100
2025-5-24 9:8:36.757	WT901BLE68(801231B9234C)	-1.054	-0.816	0.141	116.333	-98.267	-199.829	104.83	58.85	35.50	40.474	0.294	-28.322	-0.43951	-0.51047	-0.60645	0.42233	17.2	13111	100
2025-5-24 9:8:36.758	WT901BLE68(801231B9234C)	-2.577	-0.610	0.040	132.996	-90.088	-215.149	107.57	64.04	34.64	40.474	0.294	-28.322	-0.43951	-0.51047	-0.60645	0.42233	17.2	13111	100
2025-5-24 9:8:36.758	WT901BLE68(801231B9234C)	-3.200	-0.729	0.082	140.015	-39.734	-237.000	112.85	69.24	36.41	40.474	0.294	-28.322	-0.43951	-0.51047	-0.60645	0.42233	17.2	13111	100
2025-5-24 9:8:36.758	WT901BLE68(801231B9234C)	-3.434	-0.520	-0.099	177.917	-84.412	-226.990	120.50	74.32	40.25	40.474	0.294	-28.322	-0.43951	-0.51047	-0.60645	0.42233	17.2	13111	100
2025-5-24 9:8:36.782	WT901BLE68(801231B9234C)	-3.551	0.016	-0.157	186.707	-113.098	-261.841	129.89	79.89	45.48	40.474	0.294	-28.322	-0.43951	-0.51047	-0.60645	0.42233	17.2	13111	100
2025-5-24 9:8:36.783	WT901BLE68(801231B9234C)	-3.216	0.510	0.110	145.325	-98.694	-274.597	158.47	84.96	70.68	39.984	-1.862	-28.910	-0.43951	-0.51047	-0.60645	0.42233	17.2	13111	100
2025-5-24 9:8:36.872	WT901BLE68(801231B9234C)	-2.394	0.792	0.086	97.778	-147.339	-253.967	-126.82	86.29	143.09	39.984	-1.862	-28.910	-0.43951	-0.51047	-0.60645	0.42233	17.2	13111	100
2025-5-24 9:8:36.873	WT901BLE68(801231B9234C)	-1.591	1.043	-0.015	58.655	-119.507	-247.681	-88.23	82.10	-179.57	39.984	-1.862	-28.910	-0.43951	-0.51047	-0.60645	0.42233	17.2	13111	100
2025-5-24 9:8:36.873	WT901BLE68(801231B9234C)	-0.758	1.252	-0.196	63.049	-43.945	-208.496	-81.54	77.64	-173.86	39.984	-1.862	-28.910	-0.43951	-0.51047	-0.60645	0.42233	17.2	13111	100
2025-5-24 9:8:36.874	WT901BLE68(801231B9234C)	-0.419	1.513	-0.225	57.861	57.983	-165.100	-83.91	74.51	-177.23	39.984	-1.862	-28.910	-0.43951	-0.51047	-0.60645	0.42233	17.2	13111	100
2025-5-24 9:8:36.901	WT901BLE68(801231B9234C)	-0.262	1.065	-0.207	56.763	132.141	-138.306	-90.72	72.13	174.84	39.984	-1.862	-28.910	-0.43951	-0.51047	-0.60645	0.42233	17.2	13111	100
2025-5-24 9:8:36.901	WT901BLE68(801231B9234C)	-0.113	0.978	-0.209	77.637	155.151	-108.826	-97.91	70.04	166.14	39.984	-1.862	-28.910	-0.43951	-0.51047	-0.60645	0.42233	17.2	13111	100
2025-5-24 9:8:36.962	WT901BLE68(801231B9234C)	0.134	1.074	-0.217	94.421	137.268	-74.219	-103.47	68.32	158.74	39.984	-1.862	-28.910	-0.43951	-0.51047	-0.60645	0.42233	17.2	13111	100
2025-5-24 9:8:36.962	WT901BLE68(801231B9234C)	0.359	1.241	-0.255	97.473	109.619	-41.626	-107.43	67.22	152.93	39.984	-1.862	-28.910	-0.43951	-0.51047	-0.60645	0.42233	17.2	13111	100
2025-5-24 9:8:36.994	WT901BLE68(801231B9234C)	0.393	1.290	-0.191	81.055	87.036	-9.399	-110.79	66.76	147.99	39.984	-1.862	-28.910	-0.29626	-0.49329	-0.57391	0.58258	17.2	13111	100
2025-5-24 9:8:36.994	WT901BLE68(801231B9234C)	0.263	1.129	-0.161	72.388	64.331	26.062	-114.29	66.99	143.29	39.984	-1.862	-28.910	-0.29626	-0.49329	-0.57391	0.58258	17.2	13111	100
2025-5-24 9:8:37.24	WT901BLE68(801231B9234C)	0.165	1.124	-0.206	31.677	39.429	74.951	-118.51	68.11	138.38	39.984	-1.862	-28.910	-0.29626	-0.49329	-0.57391	0.58258	17.2	13111	100
2025-5-24 9:8:37.24	WT901BLE68(801231B9234C)	0.064	0.994	-0.230	-14.526	37.170	137.512	-125.35	70.18	131.69	39.984	-1.862	-28.910	-0.29626	-0.49329	-0.57391	0.58258	17.2	13111	100
2025-5-24 9:8:37.82	WT901BLE68(801231B9234C)	-0.458	0.982	-0.125	-67.993	53.223	192.993	-137.57	72.50	120.45	39.984	-1.862	-28.910	-0.29626	-0.49329	-0.57391	0.58258	17.2	13111	100
2025-5-24 9:8:37.82	WT901BLE68(801231B9234C)	-1.902	0.928	-0.039	-129.333	66.772	231.934	-156.98	73.95	102.97	39.984	-1.862	-28.910	-0.29626	-0.49329	-0.57391	0.58258	17.2	13111	100
2025-5-24 9:8:37.111	WT901BLE68(801231B9234C)	-3.163	1.003	-0.214	-206.787	36.865	221.924	-178.96	73.76	84.40	39.984	-1.862	-28.910	-0.29626	-0.49329	-0.57391	0.58258	17.2	13111	100
2025-5-24 9:8:37.111	WT901BLE68(801231B9234C)	-2.504	0.717	-0.159	-205.750	-18.677	324.036	158.07	72.34	65.52	39.984	-1.862	-28.910	-0.29626	-0.49329	-0.57391	0.58258	17.2	13111	100
2025-5-24 9:8:37.172	WT901BLE68(801231B9234C)	-3.065	0.272	-0.184	-157.104	-40.283	354.370	134.91	69.01	45.19	39.984	-1.862	-28.910	-0.29626	-0.49329	-0.57391	0.58258	17.2	13111	100
2025-5-24 9:8:37.172	WT901BLE68(801231B9234C)	-3.500	0.854	0.212	-146.545	190.002	231.262	127.03	63.52	40.11	39.984	-1.862	-28.910	-0.29626	-0.49329	-0.57391	0.58258	17.2	13111	100
2025-5-24 9:8:37.204	WT901BLE68(801231B9234C)	-2.884	1.116	0.376	-159.485	227.295	207.214	125.30	57.39	42.21	43.512	-5.782	-27.146	-0.29626	-0.49329	-0.57391	0.58258	17.2	13111	100
2025-5-24 9:8:37.204	WT901BLE68(801231B9234C)	-2.215	-0.005	0.231	-166.626	182.068	181.458	123.21	52.16	43.92	43.512	-5.782	-27.146	-0.29626	-0.49329	-0.57391	0.58258	17.2	13111	100
2025-5-24 9:8:37.235	WT901BLE68(801231B9234C)	-1.647	-0.195	0.108	-161.682	128.784	153.748	120.67	48.12	44.92	43.512	-5.782	-27.146	-0.29626	-0.49329	-0.57391	0.58258	17.2	13111	100
2025-5-24 9:8:37.235	WT901BLE68(801231B9234C)	-1.333	-0.522	0.062	-150.940	84.351	127.808	117.90	45.17	45.16	43.512	-5.782	-27.146	-0.29626	-0.49329	-0.57391	0.58258	17.2	13111	100
2025-5-24 9:8:37.321	WT901BLE68(801231B9234C)	-1.111	-0.514	0.051	-140.869	63.538	99.121	115.37	43.07	45.21	43.512	-5.782	-27.146	-0.29626	-0.49329	-0.57391	0.58258	17.2	13111	100
2025-5-24 9:8:37.321	WT901BLE68(801231B9234C)	-0.796	-0.653	0.153	-132.019	37.048	76.721	113.06	41.64	45.09	43.512	-5.782	-27.146	-0.29626	-0.49329	-0.57391	0.58258	17.2	13111	100
2025-5-24 9:8:37.322	WT901BLE68(801231B9234C)	-0.528	-0.751	0.224	-119.934	4.456	62.378	110.76	40.79	44.41	43.512	-5.782	-27.146	-0.29626	-0.49329	-0.57391	0.58258	17.2	13111	100
2025-5-24 9:8:37.322	WT901BLE68(801231B9234C)	-0.333	-1.069	0.339	-104.675	-24.414	38.208	108.54	40.50	43.22	43.512	-5.782	-27.146	-0.29626	-0.49329	-0.57391	0.58258	17.2	13111	100
2025-5-24 9:8:37.351	WT901BLE68(801231B9234C)	-0.115	-1.215	0.460	-79.285	-57.556	-7.019	106.75	41.11	41.63	43.512	-5.782	-27.146	-0.29626	-0.49329	-0.57391	0.58258	17.2	13111	100
2025-5-24 9:8:37.352	WT901BLE68(801231B9234C)	-0.069	-1.259	0.327	-47.363	-73.486	-61.401	105.34	42.89	39.84	43.512	-5.782	-27.146	-0.29626	-0.49329	-0.57391	0.58258	17.2	13111	100
2025-5-24 9:8:37.412	WT901BLE68(801231B9234C)	-0.144	-1.112	0.194	-8.972	-49.805	-107.971	105.17	45.60	38.76	43.512	-5.782	-27.146	-0.29626	-0.49329	-0.57391	0.58258	17.2	13111	100
2025-5-24 9:8:37.412	WT901BLE68(801231B9234C)	-0.409	-0.943	0.077	32.288	-20.630	-141.052	106.68	48.89	38.98	43.512	-5.782	-27.146	-0.61716	-0.60995	-0.47760	0.13742	17.2	13111	100
2025-5-24 9:8:37.441	WT901BLE68(801231B9234C)	-1.193	-0.738	0.011	71.228	-16.541	-171.204	109.84	52.63	40.26	43.512	-5.782	-27.146	-0.61716	-0.60995	-0.47760	0.13742	17.2	13111	100
2025-5-24 9:8:37.441	WT901BLE68(801231B9234C)	-2.580	-0.628	-0.038	110.168	-40.405	-214.111	114.33	57.07	42.20	43.512	-5.782	-27.146	-0.61716	-0.60995	-0.47760	0.13742	17.2	13111	100
2025-5-24 9:8:37.502	WT901BLE68(801231B9234C)	-3.063	-0.717	0.104	133.789	-71.106	-253.723	119.97	62.40	44.79	43.512	-5.782	-27.146	-0.61716	-0.60995	-0.47760	0.13742	17.2	13111	100
2025-5-24 9:8:37.503	WT901BLE68(801231B9234C)	-3.449	-0.169	0.076	166.077	-210.938	-215.637	123.85	68.65	44.86	43.512	-5.782	-27.146	-0.61716	-0.60995	-0.47760	0.13742	17.2	13111	100
2025-5-24 9:8:37.504	WT901BLE68(801231B9234C)	-3.542	0.369	-0.072	135.315	-211.243	-237.610	124.29	75.08	41.41	43.512	-5.782	-27.146	-0.61716	-0.60995	-0.47760	0.13742	17.2	13111	100
2025-5-24 9:8:37.504	WT901BLE68(801231B9234C)	-2.227	0.865	0.096	87.830	-195.374	-265.991	126.62	81.88	41.36	43.512	-5.782	-27.146	-0.61716	-0.60995	-0.47760	0.13742	17.2	13111	100
2025-5-24 9:8:37.562	WT901BLE68(801231B9234C)	-1.242	1.579	-0.099	93.079	-149.963	-215.210	131.03	87.85	43.73	43.512	-5.782	-27.146	-0.61716	-0.60995	-0.47760	0.13742	17.2	13111	100
2025-5-24 9:8:37.562	WT901BLE68(801231B9234C)	-1.113	0.740	-0.216	82.825	5.798	-207.947	-108.11	88.34	162.96	43.512	-5.782	-27.146	-0.61716	-0.60995	-0.47760	0.13742	17.2	13111	100
2025-5-24 9:8:37.594	WT901BLE68(801231B9234C)	-1.062	0.629	-0.170	125.793	132.690	-183.777	-112.24	84.18	156.81	38.024	2.254	-32.438	-0.61716	-0.60995	-0.47760	0.13742	17.2	13111	100
2025-5-24 9:8:37.594	WT901BLE68(801231B9234C)	-0.755	0.875	-0.090	159.241	153.198	-134.827	-119.63	80.26	146.56	38.024	2.254	-32.438	-0.61716	-0.60995	-0.47760	0.13742	17.2	13111	100
2025-5-24 9:8:37.624	WT901BLE68(801231B9234C)	-0.417	0.823	-0.018	162.170	131.165	-88.196	-123.58	77.27	139.56	38.024	2.254	-32.438	-0.61716	-0.60995	-0.47760	0.13742	17.2	13111	100
2025-5-24 9:8:37.624	WT901BLE68(801231B9234C)	-0.178	0.692	-0.035	164.429	96.252	-56.580	-125.38	75.20	134.75	38.024	2.254	-32.438	-0.61716	-0.60995	-0.47760	0.13742	17.2	13111	100
2025-5-24 9:8:37.681	WT901BLE68(801231B9234C)	0.083	0.694	-0.113	161.316	60.974	-34.424	-125.79	73.97	131.46	38.024	2.254	-32.438	-0.61716	-0.60995	-0.47760	0.13742	17.2	13111	100
2025-5-24 9:8:37.682	WT901BLE68(801231B9234C)	0.309	0.848	-0.183	149.414	28.992	-12.817	-125.40	73.49	129.23	38.024	2.254	-32.438	-0.61716	-0.60995	-0.47760	0.13742	17.2	13111	100
2025-5-24 9:8:37.712	WT901BLE68(801231B9234C)	0.437	1.053	-0.230	115.112	2.930	-0.671	-125.00	73.62	127.61	38.024	2.254	-32.438	-0.61716	-0.60995	-0.47760	0.13742	17.2	13111	100
2025-5-24 9:8:37.712	WT901BLE68(801231B9234C)	0.419	1.008	-0.219	69.824	-4.578	15.442	-125.56	74.14	125.93	38.024	2.254	-32.438	-0.61716	-0.60995	-0.47760	0.13742	17.2	13111	100
2025-5-24 9:8:37.744	WT901BLE68(801231B9234C)	0.280	0.923	-0.142	-2.319	12.024	45.654	-129.47	74.90	122.04	38.024	2.254	-32.438	-0.61716	-0.60995	-0.47760	0.13742	17.2	13111	100
2025-5-24 9:8:37.744	WT901BLE68(801231B9234C)	0.034	0.753	-0.176	-55.725	28.259	87.952	-138.40	75.86	114.30	38.024	2.254	-32.438	-0.61716	-0.60995	-0.47760	0.13742	17.2	13111	100
2025-5-24 9:8:37.802	WT901BLE68(801231B9234C)	-0.512	0.848	-0.055	-99.121	35.034	126.892	-152.52	76.63	102.07	38.024	2.254	-32.438	-0.35886	-0.60172	-0.49969	0.50928	17.2	13111	100
2025-5-24 9:8:37.802	WT901BLE68(801231B9234C)	-1.776	0.900	0.027	-171.082	7.996	176.636	-171.90	77.04	85.70	38.024	2.254	-32.438	-0.35886	-0.60172	-0.49969	0.50928	17.2	13111	100
2025-5-24 9:8:37.831	WT901BLE68(801231B9234C)	-3.025	0.972	-0.073	-227.173	-62.988	204.529	164.25	77.10	66.10	38.024	2.254	-32.438	-0.35886	-0.60172	-0.49969	0.50928	17.2	13111	100
2025-5-24 9:8:37.831	WT901BLE68(801231B9234C)	-2.348	0.931	0.268	-194.092	-139.771	288.086	136.49	76.27	42.63	38.024	2.254	-32.438	-0.35886	-0.60172	-0.49969	0.50928	17.2	13111	100
2025-5-24 9:8:37.861	WT901BLE68(801231B9234C)	-2.978	0.813	0.808	-148.743	-137.024	305.847	111.11	72.38	20.06	38.024	2.254	-32.438	-0.35886	-0.60172	-0.49969	0.50928	17.2	13111	100
2025-5-24 9:8:37.862	WT901BLE68(801231B9234C)	-2.686	1.217	1.057	-141.296	26.062	178.284	102.70	68.23	14.56	38.024	2.254	-32.438	-0.35886	-0.60172	-0.49969	0.50928	17.2	13111	100
2025-5-24 9:8:37.922	WT901BLE68(801231B9234C)	-2.149	0.379	0.830	-93.079	89.539	166.931	101.57	64.56	16.17	38.024	2.254	-32.438	-0.35886	-0.60172	-0.49969	0.50928	17.2	13111	100
2025-5-24 9:8:37.922	WT901BLE68(801231B9234C)	-1.626	-0.030	0.606	-75.012	99.487	145.264	101.89	61.22	18.64	38.024	2.254	-32.438	-0.35886	-0.60172	-0.49969	0.50928	17.2	13111	100
2025-5-24 9:8:37.954	WT901BLE68(801231B9234C)	-1.307	-0.206	0.426	-67.139	79.651	133.972	102.02	58.30	20.56	38.024	2.254	-32.438	-0.35886	-0.60172	-0.49969	0.50928	17.2	13111	100
2025-5-24 9:8:37.954	WT901BLE68(801231B9234C)	-1.057	-0.334	0.358	-70.618	57.434	107.178	101.46	56.00	21.58	38.024	2.254	-32.438	-0.35886	-0.60172	-0.49969	0.50928	17.2	13111	100
2025-5-24 9:8:37.984	WT901BLE68(801231B9234C)	-0.771	-0.399	0.292	-77.515	51.208	84.229	100.65	54.33	22.31	38.024	2.254	-32.438	-0.35886	-0.60172	-0.49969	0.50928	17.2	13111	100
2025-5-24 9:8:37.984	WT901BLE68(801231B9234C)	-0.562	-0.525	0.239	-81.055	51.941	67.993	99.89	53.11	23.08	40.376	-10.094	-32.144	-0.35886	-0.60172	-0.49969	0.50928	17.2	13111	100
2025-5-24 9:8:38.42	WT901BLE68(801231B9234C)	-0.421	-0.642	0.248	-78.186	54.810	54.504	99.39	52.23	23.99	40.376	-10.094	-32.144	-0.35886	-0.60172	-0.49969	0.50928	17.2	13111	100
2025-5-24 9:8:38.42	WT901BLE68(801231B9234C)	-0.183	-1.115	0.333	-84.473	37.781	46.631	98.68	51.59	24.69	40.376	-10.094	-32.144	-0.35886	-0.60172	-0.49969	0.50928	17.2	13111	100
2025-5-24 9:8:38.101	WT901BLE68(801231B9234C)	-0.018	-1.109	0.385	-64.026	11.719	18.311	97.93	51.55	24.74	40.376	-10.094	-32.144	-0.35886	-0.60172	-0.49969	0.50928	17.2	13111	100
2025-5-24 9:8:38.101	WT901BLE68(801231B9234C)	0.015	-1.254	0.359	-45.349	-7.324	-25.208	97.33	52.38	24.31	40.376	-10.094	-32.144	-0.35886	-0.60172	-0.49969	0.50928	17.2	13111	100
2025-5-24 9:8:38.102	WT901BLE68(801231B9234C)	-0.088	-1.154	0.245	-15.625	-5.188	-72.388	97.47	54.23	24.09	40.376	-10.094	-32.144	-0.35886	-0.60172	-0.49969	0.50928	17.2	13111	100
2025-5-24 9:8:38.102	WT901BLE68(801231B9234C)	-0.349	-0.965	0.197	14.038	8.484	-117.188	98.92	56.98	24.70	40.376	-10.094	-32.144	-0.35886	-0.60172	-0.49969	0.50928	17.2	13111	100
2025-5-24 9:8:38.162	WT901BLE68(801231B9234C)	-0.746	-0.810	0.234	49.683	9.644	-166.321	101.88	60.63	26.31	40.376	-10.094	-32.144	-0.35886	-0.60172	-0.49969	0.50928	17.2	13111	100
2025-5-24 9:8:38.162	WT901BLE68(801231B9234C)	-1.375	-0.722	0.225	89.844	-7.019	-210.388	106.44	65.10	28.77	40.376	-10.094	-32.144	-0.35886	-0.60172	-0.49969	0.50928	17.2	13111	100
2025-5-24 9:8:38.192	WT901BLE68(801231B9234C)	-2.725	-0.640	0.255	111.267	-48.828	-236.267	112.20	70.25	31.83	40.376	-10.094	-32.144	-0.35886	-0.60172	-0.49969	0.50928	17.2	13111	100
2025-5-24 9:8:38.192	WT901BLE68(801231B9234C)	-3.415	-0.778	0.564	105.896	-111.572	-262.451	117.59	76.14	34.39	40.376	-10.094	-32.144	-0.53351	-0.54367	-0.50266	0.40866	17.2	13111	100
2025-5-24 9:8:38.256	WT901BLE68(801231B9234C)	-3.755	-0.342	0.636	119.080	-231.750	-214.844	116.08	82.51	29.90	40.376	-10.094	-32.144	-0.53351	-0.54367	-0.50266	0.40866	17.2	13111	100
2025-5-24 9:8:38.257	WT901BLE68(801231B9234C)	-3.425	0.160	0.427	90.210	-257.813	-230.896	59.58	87.68	-29.40	40.376	-10.094	-32.144	-0.53351	-0.54367	-0.50266	0.40866	17.2	13111	100
2025-5-24 9:8:38.281	WT901BLE68(801231B9234C)	-1.917	0.761	0.523	58.960	-274.414	-224.854	-18.42	83.41	-109.12	40.376	-10.094	-32.144	-0.53351	-0.54367	-0.50266	0.40866	17.2	13111	100
2025-5-24 9:8:38.281	WT901BLE68(801231B9234C)	-1.208	1.456	-0.022	109.924	-111.572	-194.763	-29.88	78.06	-122.42	40.376	-10.094	-32.144	-0.53351	-0.54367	-0.50266	0.40866	17.2	13111	100
2025-5-24 9:8:38.312	WT901BLE68(801231B9234C)	-1.129	1.169	-0.006	79.590	155.945	-214.172	-45.19	76.81	-139.97	40.376	-10.094	-32.144	-0.53351	-0.54367	-0.50266	0.40866	17.2	13111	100
2025-5-24 9:8:38.312	WT901BLE68(801231B9234C)	-0.953	0.611	0.096	125.854	251.282	-193.970	-67.04	76.17	-164.30	40.376	-10.094	-32.144	-0.53351	-0.54367	-0.50266	0.40866	17.2	13111	100
2025-5-24 9:8:38.372	WT901BLE68(801231B9234C)	-0.626	0.925	0.073	160.706	243.835	-152.344	-84.84	74.43	174.36	40.376	-10.094	-32.144	-0.53351	-0.54367	-0.50266	0.40866	17.2	13111	100
2025-5-24 9:8:38.372	WT901BLE68(801231B9234C)	-0.306	0.951	0.096	151.062	185.974	-94.421	-95.66	72.53	160.24	40.376	-10.094	-32.144	-0.53351	-0.54367	-0.50266	0.40866	17.2	13111	100
2025-5-24 9:8:38.404	WT901BLE68(801231B9234C)	0.031	0.968	0.057	141.602	109.436	-53.040	-100.72	71.28	152.36	32.928	5.390	-37.534	-0.53351	-0.54367	-0.50266	0.40866	17.2	13111	100
2025-5-24 9:8:38.405	WT901BLE68(801231B9234C)	0.333	1.070	-0.040	122.986	40.710	-18.860	-102.05	70.94	148.79	32.928	5.390	-37.534	-0.53351	-0.54367	-0.50266	0.40866	17.2	13111	100
2025-5-24 9:8:38.434	WT901BLE68(801231B9234C)	0.569	1.165	-0.094	85.205	1.831	5.249	-101.78	71.37	147.63	32.928	5.390	-37.534	-0.53351	-0.54367	-0.50266	0.40866	17.2	13111	100
2025-5-24 9:8:38.434	WT901BLE68(801231B9234C)	0.561	0.975	-0.064	23.682	-2.686	39.612	-102.28	72.52	146.84	32.928	5.390	-37.534	-0.53351	-0.54367	-0.50266	0.40866	17.2	13111	100
2025-5-24 9:8:38.492	WT901BLE68(801231B9234C)	0.350	0.640	-0.042	-34.790	35.095	83.191	-106.77	74.36	143.22	32.928	5.390	-37.534	-0.53351	-0.54367	-0.50266	0.40866	17.2	13111	100
2025-5-24 9:8:38.492	WT901BLE68(801231B9234C)	0.049	0.578	-0.066	-76.355	65.735	129.272	-117.71	76.63	133.87	32.928	5.390	-37.534	-0.53351	-0.54367	-0.50266	0.40866	17.2	13111	100
2025-5-24 9:8:38.553	WT901BLE68(801231B9234C)	-0.353	0.826	0.049	-127.258	48.035	187.500	-136.56	78.99	117.42	32.928	5.390	-37.534	-0.53351	-0.54367	-0.50266	0.40866	17.2	13111	100
2025-5-24 9:8:38.554	WT901BLE68(801231B9234C)	-1.795	0.944	0.023	-184.204	8.545	246.765	-167.51	80.87	89.92	32.928	5.390	-37.534	-0.53351	-0.54367	-0.50266	0.40866	17.2	13111	100
2025-5-24 9:8:38.554	WT901BLE68(801231B9234C)	-3.347	1.091	-0.136	-230.713	-2.014	231.873	156.45	80.06	58.33	32.928	5.390	-37.534	-0.53351	-0.54367	-0.50266	0.40866	17.2	13111	100
2025-5-24 9:8:38.555	WT901BLE68(801231B9234C)	-2.424	1.116	0.054	-172.485	-33.813	290.833	130.23	76.90	36.35	32.928	5.390	-37.534	-0.53351	-0.54367	-0.50266	0.40866	17.2	13111	100
2025-5-24 9:8:38.643	WT901BLE68(801231B9234C)	-3.109	0.858	0.438	-114.075	3.418	280.762	113.54	71.74	22.26	32.928	5.390	-37.534	-0.54166	-0.61676	-0.44299	0.36038	17.2	13111	100
2025-5-24 9:8:38.643	WT901BLE68(801231B9234C)	-2.881	0.835	0.431	-103.638	237.305	137.451	114.44	67.02	26.17	32.928	5.390	-37.534	-0.54166	-0.61676	-0.44299	0.36038	17.2	13111	100
2025-5-24 9:8:38.672	WT901BLE68(801231B9234C)	-2.234	0.300	0.372	-62.439	226.013	138.550	118.99	62.32	33.15	32.928	5.390	-37.534	-0.54166	-0.61676	-0.44299	0.36038	17.2	13111	100
2025-5-24 9:8:38.672	WT901BLE68(801231B9234C)	-1.741	-0.131	0.233	-70.190	151.550	143.066	120.04	58.28	36.15	32.928	5.390	-37.534	-0.54166	-0.61676	-0.44299	0.36038	17.2	13111	100
2025-5-24 9:8:38.673	WT901BLE68(801231B9234C)	-1.390	-0.366	0.170	-61.157	105.652	126.709	119.59	55.00	37.28	32.928	5.390	-37.534	-0.54166	-0.61676	-0.44299	0.36038	17.2	13111	100
2025-5-24 9:8:38.673	WT901BLE68(801231B9234C)	-1.111	-0.400	0.202	-61.951	59.448	104.919	118.50	52.64	37.35	32.928	5.390	-37.534	-0.54166	-0.61676	-0.44299	0.36038	17.2	13111	100
2025-5-24 9:8:38.732	WT901BLE68(801231B9234C)	-0.857	-0.463	0.234	-71.594	35.278	75.562	117.00	51.14	36.93	32.928	5.390	-37.534	-0.54166	-0.61676	-0.44299	0.36038	17.2	13111	100
2025-5-24 9:8:38.733	WT901BLE68(801231B9234C)	-0.676	-0.559	0.253	-79.834	25.635	49.866	115.54	50.31	36.55	32.928	5.390	-37.534	-0.54166	-0.61676	-0.44299	0.36038	17.2	13111	100
2025-5-24 9:8:38.792	WT901BLE68(801231B9234C)	-0.450	-0.673	0.307	-82.153	14.893	29.541	114.18	49.99	36.23	32.928	5.390	-37.534	-0.54166	-0.61676	-0.44299	0.36038	17.2	13111	100
2025-5-24 9:8:38.792	WT901BLE68(801231B9234C)	-0.204	-0.682	0.325	-81.238	-5.493	12.207	112.73	50.14	35.68	32.928	5.390	-37.534	-0.54166	-0.61676	-0.44299	0.36038	17.2	13111	100
2025-5-24 9:8:38.793	WT901BLE68(801231B9234C)	0.082	-1.000	0.407	-61.401	-25.513	-11.169	111.45	50.88	34.82	32.928	5.390	-37.534	-0.54166	-0.61676	-0.44299	0.36038	17.2	13111	100
2025-5-24 9:8:38.793	WT901BLE68(801231B9234C)	0.119	-1.088	0.374	-31.311	-28.809	-45.044	110.85	52.30	34.08	44.198	-13.230	-22.442	-0.54166	-0.61676	-0.44299	0.36038	17.2	13111	100
2025-5-24 9:8:38.852	WT901BLE68(801231B9234C)	-0.116	-1.081	0.325	5.676	-5.432	-86.304	111.86	54.42	34.45	44.198	-13.230	-22.442	-0.54166	-0.61676	-0.44299	0.36038	17.2	13111	100
2025-5-24 9:8:38.852	WT901BLE68(801231B9234C)	-0.428	-0.861	0.316	41.260	11.841	-127.014	115.04	57.11	36.51	44.198	-13.230	-22.442	-0.54166	-0.61676	-0.44299	0.36038	17.2	13111	100
2025-5-24 9:8:38.881	WT901BLE68(801231B9234C)	-0.976	-0.660	0.304	84.839	10.193	-158.447	120.29	60.18	39.93	44.198	-13.230	-22.442	-0.54166	-0.61676	-0.44299	0.36038	17.2	13111	100
2025-5-24 9:8:38.881	WT901BLE68(801231B9234C)	-2.155	-0.538	0.307	114.502	-27.954	-178.711	127.04	63.74	44.17	44.198	-13.230	-22.442	-0.54166	-0.61676	-0.44299	0.36038	17.2	13111	100
2025-5-24 9:8:38.912	WT901BLE68(801231B9234C)	-2.704	-0.692	0.400	122.803	-88.440	-211.304	134.41	68.06	48.58	44.198	-13.230	-22.442	-0.54166	-0.61676	-0.44299	0.36038	17.2	13111	100
2025-5-24 9:8:38.912	WT901BLE68(801231B9234C)	-3.133	-0.470	0.424	136.536	-212.830	-201.782	141.49	73.69	52.44	44.198	-13.230	-22.442	-0.54166	-0.61676	-0.44299	0.36038	17.2	13111	100
2025-5-24 9:8:38.973	WT901BLE68(801231B9234C)	-3.927	0.016	0.467	119.507	-279.907	-192.139	144.85	80.52	52.50	44.198	-13.230	-22.442	-0.54166	-0.61676	-0.44299	0.36038	17.2	13111	100
2025-5-24 9:8:38.973	WT901BLE68(801231B9234C)	-3.061	0.340	0.644	46.021	-321.045	-223.938	157.90	87.99	63.77	44.198	-13.230	-22.442	-0.54166	-0.61676	-0.44299	0.36038	17.2	13111	100
2025-5-24 9:8:39.4	WT901BLE68(801231B9234C)	-1.572	1.021	0.370	21.423	-373.596	-198.853	-33.25	84.44	-128.16	44.198	-13.230	-22.442	-0.54166	-0.61676	-0.44299	0.36038	17.2	13111	100
2025-5-24 9:8:39.5	WT901BLE68(801231B9234C)	-0.761	1.276	-0.169	50.720	-160.461	-162.964	-32.51	78.27	-128.29	44.198	-13.230	-22.442	-0.47400	-0.44162	-0.45844	0.60828	17.2	13111	100
2025-5-24 9:8:39.34	WT901BLE68(801231B9234C)	-0.823	0.704	-0.102	43.396	105.774	-177.551	-43.71	76.51	-140.49	44.198	-13.230	-22.442	-0.47400	-0.44162	-0.45844	0.60828	17.2	13111	100
2025-5-24 9:8:39.34	WT901BLE68(801231B9234C)	-0.892	0.656	-0.125	101.807	267.395	-178.528	-64.26	76.42	-163.03	44.198	-13.230	-22.442	-0.47400	-0.44162	-0.45844	0.60828	17.2	13111	100
2025-5-24 9:8:39.92	WT901BLE68(801231B9234C)	-0.651	0.613	-0.053	110.901	300.049	-124.756	-87.03	75.36	171.44	44.198	-13.230	-22.442	-0.47400	-0.44162	-0.45844	0.60828	17.2	13111	100
2025-5-24 9:8:39.92	WT901BLE68(801231B9234C)	-0.382	0.660	-0.002	124.939	234.802	-76.782	-102.57	73.46	153.11	44.198	-13.230	-22.442	-0.47400	-0.44162	-0.45844	0.60828	17.2	13111	100
2025-5-24 9:8:39.121	WT901BLE68(801231B9234C)	-0.136	0.690	0.004	120.667	137.268	-41.382	-110.20	71.88	143.04	44.198	-13.230	-22.442	-0.47400	-0.44162	-0.45844	0.60828	17.2	13111	100
2025-5-24 9:8:39.121	WT901BLE68(801231B9234C)	0.126	0.790	-0.060	103.699	37.537	-19.348	-112.39	71.30	139.03	44.198	-13.230	-22.442	-0.47400	-0.44162	-0.45844	0.60828	17.2	13111	100
2025-5-24 9:8:39.154	WT901BLE68(801231B9234C)	0.392	0.874	-0.138	82.458	-34.485	-5.310	-110.94	71.65	139.36	44.198	-13.230	-22.442	-0.47400	-0.44162	-0.45844	0.60828	17.2	13111	100
2025-5-24 9:8:39.154	WT901BLE68(801231B9234C)	0.474	0.883	-0.167	49.561	-61.096	13.611	-108.22	72.61	141.59	44.198	-13.230	-22.442	-0.47400	-0.44162	-0.45844	0.60828	17.2	13111	100
2025-5-24 9:8:39.213	WT901BLE68(801231B9234C)	0.320	0.753	-0.261	-24.841	-59.143	41.260	-106.81	74.10	143.77	37.730	3.234	-33.026	-0.47400	-0.44162	-0.45844	0.60828	17.2	13111	100
2025-5-24 9:8:39.213	WT901BLE68(801231B9234C)	0.019	0.576	-0.293	-66.528	-10.193	68.054	-109.53	75.94	142.77	37.730	3.234	-33.026	-0.47400	-0.44162	-0.45844	0.60828	17.2	13111	100
2025-5-24 9:8:39.241	WT901BLE68(801231B9234C)	-0.459	0.656	-0.138	-107.666	28.931	114.075	-119.22	78.03	135.29	37.730	3.234	-33.026	-0.47400	-0.44162	-0.45844	0.60828	17.2	13111	100
2025-5-24 9:8:39.242	WT901BLE68(801231B9234C)	-1.416	0.717	0.001	-170.593	1.343	166.138	-136.66	80.49	121.08	37.730	3.234	-33.026	-0.47400	-0.44162	-0.45844	0.60828	17.2	13111	100
2025-5-24 9:8:39.271	WT901BLE68(801231B9234C)	-2.655	0.724	-0.042	-230.469	-58.899	210.327	-166.33	83.13	95.88	37.730	3.234	-33.026	-0.47400	-0.44162	-0.45844	0.60828	17.2	13111	100
2025-5-24 9:8:39.272	WT901BLE68(801231B9234C)	-2.334	0.568	0.093	-218.445	-58.716	283.447	145.02	83.20	52.06	37.730	3.234	-33.026	-0.47400	-0.44162	-0.45844	0.60828	17.2	13111	100
2025-5-24 9:8:39.332	WT901BLE68(801231B9234C)	-2.794	0.530	0.550	-166.016	-41.992	323.975	111.53	78.35	22.29	37.730	3.234	-33.026	-0.47400	-0.44162	-0.45844	0.60828	17.2	13111	100
2025-5-24 9:8:39.332	WT901BLE68(801231B9234C)	-2.755	0.848	0.853	-131.531	122.681	209.045	106.00	73.12	19.87	37.730	3.234	-33.026	-0.47400	-0.44162	-0.45844	0.60828	17.2	13111	100
2025-5-24 9:8:39.392	WT901BLE68(801231B9234C)	-2.377	0.294	0.855	-98.999	183.044	188.232	108.89	68.34	25.68	37.730	3.234	-33.026	-0.47400	-0.44162	-0.45844	0.60828	17.2	13111	100
2025-5-24 9:8:39.392	WT901BLE68(801231B9234C)	-1.870	-0.114	0.674	-78.003	196.655	152.832	112.02	63.94	31.20	37.730	3.234	-33.026	-0.47400	-0.44162	-0.45844	0.60828	17.2	13111	100
2025-5-24 9:8:39.393	WT901BLE68(801231B9234C)	-1.410	-0.305	0.435	-68.848	152.527	123.535	114.04	60.34	35.32	37.730	3.234	-33.026	-0.47400	-0.44162	-0.45844	0.60828	17.2	13111	100
2025-5-24 9:8:39.393	WT901BLE68(801231B9234C)	-1.119	-0.395	0.303	-62.866	81.848	100.037	114.20	57.80	37.05	37.730	3.234	-33.026	-0.57697	-0.61884	-0.47977	0.23206	17.2	13111	100
2025-5-24 9:8:39.452	WT901BLE68(801231B9234C)	-0.779	-0.464	0.273	-61.829	4.150	84.534	112.57	56.30	36.44	37.730	3.234	-33.026	-0.57697	-0.61884	-0.47977	0.23206	17.2	13111	100
2025-5-24 9:8:39.452	WT901BLE68(801231B9234C)	-0.486	-0.588	0.244	-60.181	-41.870	78.979	109.70	55.48	34.08	37.730	3.234	-33.026	-0.57697	-0.61884	-0.47977	0.23206	17.2	13111	100
2025-5-24 9:8:39.481	WT901BLE68(801231B9234C)	-0.249	-0.994	0.313	-83.923	-52.673	80.688	106.48	54.87	31.14	37.730	3.234	-33.026	-0.57697	-0.61884	-0.47977	0.23206	17.2	13111	100
2025-5-24 9:8:39.481	WT901BLE68(801231B9234C)	-0.038	-1.393	0.376	-44.373	-45.288	53.833	103.95	54.52	28.46	37.730	3.234	-33.026	-0.57697	-0.61884	-0.47977	0.23206	17.2	13111	100
2025-5-24 9:8:39.512	WT901BLE68(801231B9234C)	-0.057	-1.097	0.361	-15.503	-23.865	9.460	102.97	54.77	26.89	37.730	3.234	-33.026	-0.57697	-0.61884	-0.47977	0.23206	17.2	13111	100
2025-5-24 9:8:39.512	WT901BLE68(801231B9234C)	-0.088	-0.941	0.410	0.183	-19.470	-48.584	103.28	56.03	26.30	37.730	3.234	-33.026	-0.57697	-0.61884	-0.47977	0.23206	17.2	13111	100
2025-5-24 9:8:39.574	WT901BLE68(801231B9234C)	-0.266	-0.822	0.343	14.771	-27.466	-89.233	104.14	58.34	26.06	37.730	3.234	-33.026	-0.57697	-0.61884	-0.47977	0.23206	17.2	13111	100
2025-5-24 9:8:39.574	WT901BLE68(801231B9234C)	-0.547	-0.766	0.338	33.264	-25.757	-130.066	105.84	61.43	26.39	37.730	3.234	-33.026	-0.57697	-0.61884	-0.47977	0.23206	17.2	13111	100
2025-5-24 9:8:39.604	WT901BLE68(801231B9234C)	-0.723	-0.615	0.337	56.702	-46.265	-168.213	108.44	65.32	27.24	37.730	3.234	-33.026	-0.57697	-0.61884	-0.47977	0.23206	17.2	13111	100
2025-5-24 9:8:39.604	WT901BLE68(801231B9234C)	-1.378	-0.523	0.258	69.519	-86.426	-188.904	110.81	69.94	27.45	41.454	-6.566	-27.440	-0.57697	-0.61884	-0.47977	0.23206	17.2	13111	100
2025-5-24 9:8:39.662	WT901BLE68(801231B9234C)	-2.632	-0.593	0.329	71.167	-110.657	-203.186	112.25	75.00	26.59	41.454	-6.566	-27.440	-0.57697	-0.61884	-0.47977	0.23206	17.2	13111	100
2025-5-24 9:8:39.662	WT901BLE68(801231B9234C)	-3.125	-0.753	0.656	63.232	-115.784	-220.764	113.55	80.36	25.81	41.454	-6.566	-27.440	-0.57697	-0.61884	-0.47977	0.23206	17.2	13111	100
2025-5-24 9:8:39.692	WT901BLE68(801231B9234C)	-3.651	-0.347	0.706	77.393	-231.934	-160.278	96.36	85.45	6.43	41.454	-6.566	-27.440	-0.57697	-0.61884	-0.47977	0.23206	17.2	13111	100
2025-5-24 9:8:39.692	WT901BLE68(801231B9234C)	-3.345	0.327	0.638	23.254	-235.168	-188.599	17.23	86.25	-74.30	41.454	-6.566	-27.440	-0.57697	-0.61884	-0.47977	0.23206	17.2	13111	100
2025-5-24 9:8:39.721	WT901BLE68(801231B9234C)	-1.684	0.769	0.628	-9.888	-301.758	-190.186	-15.45	80.46	-107.34	41.454	-6.566	-27.440	-0.57697	-0.61884	-0.47977	0.23206	17.2	13111	100
2025-5-24 9:8:39.721	WT901BLE68(801231B9234C)	-1.009	1.305	0.216	48.828	-135.803	-151.062	-22.56	75.05	-115.10	41.454	-6.566	-27.440	-0.57697	-0.61884	-0.47977	0.23206	17.2	13111	100
2025-5-24 9:8:39.781	WT901BLE68(801231B9234C)	-1.264	0.655	0.356	29.907	103.149	-184.631	-33.23	74.05	-126.75	41.454	-6.566	-27.440	-0.57697	-0.61884	-0.47977	0.23206	17.2	13111	100
2025-5-24 9:8:39.782	WT901BLE68(801231B9234C)	-1.390	0.437	0.312	88.013	156.921	-179.871	-47.53	74.17	-142.77	41.454	-6.566	-27.440	-0.57697	-0.61884	-0.47977	0.23206	17.2	13111	100
2025-5-24 9:8:39.811	WT901BLE68(801231B9234C)	-0.643	0.812	0.314	123.230	42.847	-140.381	-56.16	73.05	-153.85	41.454	-6.566	-27.440	-0.57697	-0.61884	-0.47977	0.23206	17.2	13111	100
2025-5-24 9:8:39.812	WT901BLE68(801231B9234C)	0.025	0.843	0.242	140.625	-67.383	-98.511	-55.13	71.16	-155.28	41.454	-6.566	-27.440	-0.40613	-0.41656	-0.46487	0.66733	17.2	13111	100
2025-5-24 9:8:39.843	WT901BLE68(801231B9234C)	0.297	0.782	0.115	135.986	-69.214	-94.727	-51.78	69.09	-154.25	41.454	-6.566	-27.440	-0.40613	-0.41656	-0.46487	0.66733	17.2	13111	100
2025-5-24 9:8:39.844	WT901BLE68(801231B9234C)	0.466	0.857	-0.044	120.178	-20.081	-87.219	-50.21	67.65	-154.82	41.454	-6.566	-27.440	-0.40613	-0.41656	-0.46487	0.66733	17.2	13111	100
2025-5-24 9:8:39.902	WT901BLE68(801231B9234C)	0.624	0.985	-0.243	101.196	17.395	-64.453	-50.10	67.15	-156.56	41.454	-6.566	-27.440	-0.40613	-0.41656	-0.46487	0.66733	17.2	13111	100
2025-5-24 9:8:39.902	WT901BLE68(801231B9234C)	0.542	0.825	-0.301	66.833	48.523	-15.869	-50.47	67.79	-158.21	41.454	-6.566	-27.440	-0.40613	-0.41656	-0.46487	0.66733	17.2	13111	100
2025-5-24 9:8:39.932	WT901BLE68(801231B9234C)	0.408	0.524	-0.295	33.813	83.679	46.265	-51.23	69.89	-159.52	41.454	-6.566	-27.440	-0.40613	-0.41656	-0.46487	0.66733	17.2	13111	100
2025-5-24 9:8:39.932	WT901BLE68(801231B9234C)	0.386	0.521	-0.207	-0.549	102.234	112.244	-51.73	73.38	-159.88	41.454	-6.566	-27.440	-0.40613	-0.41656	-0.46487	0.66733	17.2	13111	100
2025-5-24 9:8:39.964	WT901BLE68(801231B9234C)	0.241	0.667	0.002	-41.931	135.376	184.448	-51.30	78.35	-158.50	41.454	-6.566	-27.440	-0.40613	-0.41656	-0.46487	0.66733	17.2	13111	100
2025-5-24 9:8:39.965	WT901BLE68(801231B9234C)	-0.829	0.682	0.200	-101.440	188.293	248.108	-48.82	84.94	-154.05	41.454	-6.566	-27.440	-0.40613	-0.41656	-0.46487	0.66733	17.2	13111	100
2025-5-24 9:8:40.22	WT901BLE68(801231B9234C)	-3.097	1.129	0.312	-196.777	226.868	270.142	117.29	88.31	15.60	30.576	0.000	-40.376	-0.40613	-0.41656	-0.46487	0.66733	17.2	13111	100
2025-5-24 9:8:40.22	WT901BLE68(801231B9234C)	-3.546	1.490	0.034	-289.795	95.398	250.916	116.67	81.60	20.80	30.576	0.000	-40.376	-0.40613	-0.41656	-0.46487	0.66733	17.2	13111	100
2025-5-24 9:8:40.51	WT901BLE68(801231B9234C)	-3.170	1.329	0.521	-199.585	-47.058	356.445	101.27	75.10	10.24	30.576	0.000	-40.376	-0.40613	-0.41656	-0.46487	0.66733	17.2	13111	100
2025-5-24 9:8:40.51	WT901BLE68(801231B9234C)	-3.007	1.436	0.862	-153.992	69.519	219.727	94.95	69.35	7.49	30.576	0.000	-40.376	-0.40613	-0.41656	-0.46487	0.66733	17.2	13111	100
2025-5-24 9:8:40.82	WT901BLE68(801231B9234C)	-2.166	0.675	0.777	-113.403	171.265	162.354	98.00	65.40	14.06	30.576	0.000	-40.376	-0.40613	-0.41656	-0.46487	0.66733	17.2	13111	100
2025-5-24 9:8:40.82	WT901BLE68(801231B9234C)	-1.671	0.090	0.564	-79.407	165.894	143.250	101.39	61.88	20.12	30.576	0.000	-40.376	-0.40613	-0.41656	-0.46487	0.66733	17.2	13111	100
2025-5-24 9:8:40.142	WT901BLE68(801231B9234C)	-1.259	-0.292	0.413	-64.453	124.878	148.010	103.17	58.52	24.04	30.576	0.000	-40.376	-0.40613	-0.41656	-0.46487	0.66733	17.2	13111	100
2025-5-24 9:8:40.142	WT901BLE68(801231B9234C)	-1.040	-0.442	0.254	-55.786	94.116	145.691	103.67	55.39	26.16	30.576	0.000	-40.376	-0.40613	-0.41656	-0.46487	0.66733	17.2	13111	100
2025-5-24 9:8:40.174	WT901BLE68(801231B9234C)	-0.959	-0.555	0.187	-52.307	70.679	135.681	103.47	52.64	27.23	30.576	0.000	-40.376	-0.40613	-0.41656	-0.46487	0.66733	17.2	13111	100
2025-5-24 9:8:40.174	WT901BLE68(801231B9234C)	-0.697	-0.687	0.219	-46.570	53.223	116.394	103.10	50.38	27.79	30.576	0.000	-40.376	-0.40613	-0.41656	-0.46487	0.66733	17.2	13111	100
2025-5-24 9:8:40.232	WT901BLE68(801231B9234C)	-0.496	-0.307	0.205	-42.358	12.329	82.764	102.47	48.80	27.57	30.576	0.000	-40.376	-0.40613	-0.41656	-0.46487	0.66733	17.2	13111	100
2025-5-24 9:8:40.232	WT901BLE68(801231B9234C)	-0.103	-1.471	0.439	-36.133	-27.832	77.759	101.17	47.71	26.15	30.576	0.000	-40.376	-0.63489	-0.63562	-0.40408	0.17172	17.2	13111	100
2025-5-24 9:8:40.264	WT901BLE68(801231B9234C)	0.009	-1.462	0.406	-19.775	-33.691	19.287	100.15	47.61	24.47	30.576	0.000	-40.376	-0.63489	-0.63562	-0.40408	0.17172	17.2	13111	100
2025-5-24 9:8:40.264	WT901BLE68(801231B9234C)	-0.186	-1.243	0.377	2.625	-10.315	-47.668	100.31	48.86	23.67	30.576	0.000	-40.376	-0.63489	-0.63562	-0.40408	0.17172	17.2	13111	100
2025-5-24 9:8:40.292	WT901BLE68(801231B9234C)	-0.341	-0.945	0.294	18.433	5.127	-96.497	101.56	51.27	24.02	30.576	0.000	-40.376	-0.63489	-0.63562	-0.40408	0.17172	17.2	13111	100
2025-5-24 9:8:40.292	WT901BLE68(801231B9234C)	-0.586	-0.801	0.337	38.025	13.672	-141.663	104.04	54.40	25.28	30.576	0.000	-40.376	-0.63489	-0.63562	-0.40408	0.17172	17.2	13111	100
2025-5-24 9:8:40.321	WT901BLE68(801231B9234C)	-0.995	-0.660	0.309	59.021	-1.892	-182.495	107.56	58.34	27.23	30.576	0.000	-40.376	-0.63489	-0.63562	-0.40408	0.17172	17.2	13111	100
2025-5-24 9:8:40.321	WT901BLE68(801231B9234C)	-1.934	-0.566	0.245	74.524	-25.452	-211.731	111.86	62.95	29.58	30.576	0.000	-40.376	-0.63489	-0.63562	-0.40408	0.17172	17.2	13111	100
2025-5-24 9:8:40.384	WT901BLE68(801231B9234C)	-3.134	-0.712	0.371	76.050	-53.955	-231.567	116.92	67.98	32.55	30.576	0.000	-40.376	-0.63489	-0.63562	-0.40408	0.17172	17.2	13111	100
2025-5-24 9:8:40.384	WT901BLE68(801231B9234C)	-3.967	-0.700	0.543	97.412	-96.069	-240.417	122.89	73.42	36.25	30.576	0.000	-40.376	-0.63489	-0.63562	-0.40408	0.17172	17.2	13111	100
2025-5-24 9:8:40.414	WT901BLE68(801231B9234C)	-4.166	0.149	0.487	86.365	-224.976	-225.037	124.01	79.55	34.79	30.576	0.000	-40.376	-0.63489	-0.63562	-0.40408	0.17172	17.2	13111	100
2025-5-24 9:8:40.414	WT901BLE68(801231B9234C)	-2.674	0.723	0.412	17.761	-319.336	-240.845	97.90	86.59	7.34	40.474	-2.450	-29.792	-0.63489	-0.63562	-0.40408	0.17172	17.2	13111	100
2025-5-24 9:8:40.443	WT901BLE68(801231B9234C)	-1.103	1.576	0.090	36.987	-279.846	-204.468	-6.05	84.66	-97.35	40.474	-2.450	-29.792	-0.63489	-0.63562	-0.40408	0.17172	17.2	13111	100
2025-5-24 9:8:40.444	WT901BLE68(801231B9234C)	-0.695	1.065	-0.138	37.415	-15.015	-194.641	-27.64	81.29	-120.04	40.474	-2.450	-29.792	-0.63489	-0.63562	-0.40408	0.17172	17.2	13111	100
2025-5-24 9:8:40.501	WT901BLE68(801231B9234C)	-0.972	0.320	-0.045	66.101	213.196	-203.247	-55.05	80.84	-148.51	40.474	-2.450	-29.792	-0.63489	-0.63562	-0.40408	0.17172	17.2	13111	100
2025-5-24 9:8:40.502	WT901BLE68(801231B9234C)	-0.865	0.705	-0.025	149.536	295.532	-193.848	-87.68	78.96	176.04	40.474	-2.450	-29.792	-0.63489	-0.63562	-0.40408	0.17172	17.2	13111	100
2025-5-24 9:8:40.531	WT901BLE68(801231B9234C)	-0.536	0.710	0.021	155.457	248.596	-122.803	-106.50	75.67	154.08	40.474	-2.450	-29.792	-0.63489	-0.63562	-0.40408	0.17172	17.2	13111	100
2025-5-24 9:8:40.531	WT901BLE68(801231B9234C)	-0.198	0.693	-0.009	151.428	176.819	-74.463	-115.00	72.90	142.55	40.474	-2.450	-29.792	-0.63489	-0.63562	-0.40408	0.17172	17.2	13111	100
2025-5-24 9:8:40.562	WT901BLE68(801231B9234C)	0.071	0.754	-0.071	147.217	92.407	-35.217	-118.09	71.31	136.69	40.474	-2.450	-29.792	-0.63489	-0.63562	-0.40408	0.17172	17.2	13111	100
2025-5-24 9:8:40.562	WT901BLE68(801231B9234C)	0.341	0.943	-0.124	126.465	19.897	-15.198	-118.11	70.92	134.48	40.474	-2.450	-29.792	-0.63489	-0.63562	-0.40408	0.17172	17.2	13111	100
2025-5-24 9:8:40.652	WT901BLE68(801231B9234C)	0.501	1.151	-0.135	93.750	-28.320	2.625	-116.56	71.38	134.59	40.474	-2.450	-29.792	-0.63489	-0.63562	-0.40408	0.17172	17.2	13111	100
2025-5-24 9:8:40.652	WT901BLE68(801231B9234C)	0.488	1.106	-0.139	26.001	-41.565	24.719	-115.58	72.50	135.29	40.474	-2.450	-29.792	-0.63489	-0.63562	-0.40408	0.17172	17.2	13111	100
2025-5-24 9:8:40.653	WT901BLE68(801231B9234C)	0.380	0.790	-0.226	-49.255	8.911	57.861	-118.92	73.88	133.09	40.474	-2.450	-29.792	-0.30695	-0.55469	-0.51035	0.58096	17.2	13111	100
2025-5-24 9:8:40.653	WT901BLE68(801231B9234C)	0.198	0.736	-0.237	-85.815	82.275	98.389	-129.84	75.02	123.98	40.474	-2.450	-29.792	-0.30695	-0.55469	-0.51035	0.58096	17.2	13111	100
2025-5-24 9:8:40.712	WT901BLE68(801231B9234C)	-0.455	0.912	-0.083	-137.268	131.348	143.921	-148.12	75.12	108.09	40.474	-2.450	-29.792	-0.30695	-0.55469	-0.51035	0.58096	17.2	13111	100
2025-5-24 9:8:40.712	WT901BLE68(801231B9234C)	-2.217	0.996	-0.131	-222.229	115.540	185.486	-169.75	73.91	90.16	40.474	-2.450	-29.792	-0.30695	-0.55469	-0.51035	0.58096	17.2	13111	100
2025-5-24 9:8:40.741	WT901BLE68(801231B9234C)	-3.462	1.002	-0.553	-300.720	49.255	189.636	170.36	72.11	75.69	40.474	-2.450	-29.792	-0.30695	-0.55469	-0.51035	0.58096	17.2	13111	100
2025-5-24 9:8:40.741	WT901BLE68(801231B9234C)	-2.559	0.572	-0.278	-235.840	-29.663	285.828	150.68	70.01	61.26	40.474	-2.450	-29.792	-0.30695	-0.55469	-0.51035	0.58096	17.2	13111	100
2025-5-24 9:8:40.832	WT901BLE68(801231B9234C)	-3.182	0.445	-0.122	-142.151	-21.301	276.917	132.95	67.07	46.49	40.474	-2.450	-29.792	-0.30695	-0.55469	-0.51035	0.58096	17.2	13111	100
2025-5-24 9:8:40.832	WT901BLE68(801231B9234C)	-3.166	0.741	0.271	-148.743	188.232	165.833	127.75	62.28	44.63	40.474	-2.450	-29.792	-0.30695	-0.55469	-0.51035	0.58096	17.2	13111	100
2025-5-24 9:8:40.833	WT901BLE68(801231B9234C)	-2.332	0.157	0.390	-96.985	108.521	151.917	125.98	58.01	45.53	40.474	-2.450	-29.792	-0.30695	-0.55469	-0.51035	0.58096	17.2	13111	100
2025-5-24 9:8:40.833	WT901BLE68(801231B9234C)	-1.652	-0.074	0.202	-85.266	12.573	121.704	122.78	55.62	44.04	45.472	-2.548	-22.442	-0.30695	-0.55469	-0.51035	0.58096	17.2	13111	100
2025-5-24 9:8:40.861	WT901BLE68(801231B9234C)	-1.229	-0.242	0.058	-95.764	-39.551	111.450	118.65	54.18	41.29	45.472	-2.548	-22.442	-0.30695	-0.55469	-0.51035	0.58096	17.2	13111	100
2025-5-24 9:8:40.861	WT901BLE68(801231B9234C)	-0.924	-0.492	0.023	-91.492	-56.763	92.896	114.21	53.21	38.02	45.472	-2.548	-22.442	-0.30695	-0.55469	-0.51035	0.58096	17.2	13111	100
2025-5-24 9:8:40.894	WT901BLE68(801231B9234C)	-0.674	-0.531	0.063	-80.688	-44.128	66.833	110.63	52.60	35.34	45.472	-2.548	-22.442	-0.30695	-0.55469	-0.51035	0.58096	17.2	13111	100
2025-5-24 9:8:40.894	WT901BLE68(801231B9234C)	-0.456	-0.567	0.124	-75.256	-36.316	52.673	107.88	52.21	33.32	45.472	-2.548	-22.442	-0.30695	-0.55469	-0.51035	0.58096	17.2	13111	100
2025-5-24 9:8:40.923	WT901BLE68(801231B9234C)	-0.258	-0.438	0.119	-66.711	-38.452	38.879	105.47	52.03	31.47	45.472	-2.548	-22.442	-0.30695	-0.55469	-0.51035	0.58096	17.2	13111	100
2025-5-24 9:8:40.924	WT901BLE68(801231B9234C)	-0.041	-0.869	0.291	-56.702	-43.152	23.499	103.45	52.14	29.67	45.472	-2.548	-22.442	-0.30695	-0.55469	-0.51035	0.58096	17.2	13111	100
2025-5-24 9:8:40.983	WT901BLE68(801231B9234C)	0.130	-1.081	0.316	-30.334	-46.936	-11.597	102.05	52.82	27.93	45.472	-2.548	-22.442	-0.30695	-0.55469	-0.51035	0.58096	17.2	13111	100
2025-5-24 9:8:40.983	WT901BLE68(801231B9234C)	0.079	-1.121	0.277	1.282	-30.884	-51.025	101.81	54.31	26.78	45.472	-2.548	-22.442	-0.30695	-0.55469	-0.51035	0.58096	17.2	13111	100
2025-5-24 9:8:41.14	WT901BLE68(801231B9234C)	-0.051	-0.934	0.196	29.358	-6.714	-89.050	103.22	56.51	26.90	45.472	-2.548	-22.442	-0.30695	-0.55469	-0.51035	0.58096	17.2	13111	100
2025-5-24 9:8:41.15	WT901BLE68(801231B9234C)	-0.321	-0.786	0.169	55.481	2.502	-120.056	106.14	59.31	28.25	45.472	-2.548	-22.442	-0.30695	-0.55469	-0.51035	0.58096	17.2	13111	100
2025-5-24 9:8:41.44	WT901BLE68(801231B9234C)	-0.776	-0.714	0.153	79.956	-13.306	-149.292	110.24	62.67	30.33	45.472	-2.548	-22.442	-0.30695	-0.55469	-0.51035	0.58096	17.2	13111	100
2025-5-24 9:8:41.44	WT901BLE68(801231B9234C)	-1.956	-0.720	0.087	98.083	-55.359	-162.842	114.65	66.54	32.27	45.472	-2.548	-22.442	-0.55951	-0.59906	-0.47711	0.31668	17.2	13111	100
2025-5-24 9:8:41.102	WT901BLE68(801231B9234C)	-2.969	-0.732	0.181	101.074	-85.938	-187.134	118.73	70.91	33.60	45.472	-2.548	-22.442	-0.55951	-0.59906	-0.47711	0.31668	17.2	13111	100
2025-5-24 9:8:41.102	WT901BLE68(801231B9234C)	-3.668	-0.698	0.310	100.342	-158.875	-182.678	122.38	75.96	34.66	45.472	-2.548	-22.442	-0.55951	-0.59906	-0.47711	0.31668	17.2	13111	100
2025-5-24 9:8:41.131	WT901BLE68(801231B9234C)	-4.160	-0.289	0.167	108.704	-224.792	-151.733	114.61	81.07	23.99	45.472	-2.548	-22.442	-0.55951	-0.59906	-0.47711	0.31668	17.2	13111	100
2025-5-24 9:8:41.131	WT901BLE68(801231B9234C)	-3.201	0.734	0.356	59.387	-214.844	-221.008	90.26	86.34	-2.53	45.472	-2.548	-22.442	-0.55951	-0.59906	-0.47711	0.31668	17.2	13111	100
2025-5-24 9:8:41.194	WT901BLE68(801231B9234C)	-1.731	1.661	0.373	50.598	-220.154	-213.440	-3.57	85.92	-97.61	45.472	-2.548	-22.442	-0.55951	-0.59906	-0.47711	0.31668	17.2	13111	100
2025-5-24 9:8:41.194	WT901BLE68(801231B9234C)	-1.074	1.036	0.177	55.664	-39.856	-208.801	-32.02	82.52	-127.34	45.472	-2.548	-22.442	-0.55951	-0.59906	-0.47711	0.31668	17.2	13111	100
2025-5-24 9:8:41.224	WT901BLE68(801231B9234C)	-1.002	0.342	0.152	97.168	105.408	-203.735	-54.12	80.66	-150.99	45.472	-2.548	-22.442	-0.55951	-0.59906	-0.47711	0.31668	17.2	13111	100
2025-5-24 9:8:41.224	WT901BLE68(801231B9234C)	-0.756	0.891	0.128	166.199	178.406	-191.589	-74.61	78.61	-174.57	33.320	4.410	-37.240	-0.55951	-0.59906	-0.47711	0.31668	17.2	13111	100
2025-5-24 9:8:41.254	WT901BLE68(801231B9234C)	-0.346	1.079	0.173	171.753	179.199	-133.911	-88.81	76.35	167.72	33.320	4.410	-37.240	-0.55951	-0.59906	-0.47711	0.31668	17.2	13111	100
2025-5-24 9:8:41.254	WT901BLE68(801231B9234C)	-0.068	0.925	0.141	174.866	145.935	-88.135	-97.09	74.55	156.04	33.320	4.410	-37.240	-0.55951	-0.59906	-0.47711	0.31668	17.2	13111	100
2025-5-24 9:8:41.312	WT901BLE68(801231B9234C)	0.118	0.933	0.083	166.016	102.478	-59.814	-101.45	73.28	148.54	33.320	4.410	-37.240	-0.55951	-0.59906	-0.47711	0.31668	17.2	13111	100
2025-5-24 9:8:41.312	WT901BLE68(801231B9234C)	0.336	1.024	-0.005	142.578	52.246	-42.908	-103.11	72.54	144.31	33.320	4.410	-37.240	-0.55951	-0.59906	-0.47711	0.31668	17.2	13111	100
2025-5-24 9:8:41.341	WT901BLE68(801231B9234C)	0.488	1.117	-0.097	93.933	-4.517	-19.775	-102.64	72.45	143.15	33.320	4.410	-37.240	-0.55951	-0.59906	-0.47711	0.31668	17.2	13111	100
2025-5-24 9:8:41.341	WT901BLE68(801231B9234C)	0.453	0.919	-0.141	17.639	-26.001	7.874	-101.98	73.09	143.67	33.320	4.410	-37.240	-0.55951	-0.59906	-0.47711	0.31668	17.2	13111	100
2025-5-24 9:8:41.432	WT901BLE68(801231B9234C)	0.252	0.655	-0.181	-38.818	2.686	44.739	-104.24	74.37	142.51	33.320	4.410	-37.240	-0.55951	-0.59906	-0.47711	0.31668	17.2	13111	100
2025-5-24 9:8:41.432	WT901BLE68(801231B9234C)	0.000	0.759	-0.154	-93.445	24.719	95.886	-111.48	76.31	137.25	33.320	4.410	-37.240	-0.55951	-0.59906	-0.47711	0.31668	17.2	13111	100
2025-5-24 9:8:41.433	WT901BLE68(801231B9234C)	-0.538	0.850	-0.037	-161.377	-1.160	166.199	-124.44	79.19	127.41	33.320	4.410	-37.240	-0.55951	-0.59906	-0.47711	0.31668	17.2	13111	100
2025-5-24 9:8:41.433	WT901BLE68(801231B9234C)	-2.019	0.757	-0.093	-232.910	-31.189	220.337	-149.58	82.56	106.74	33.320	4.410	-37.240	-0.55951	-0.59906	-0.47711	0.31668	17.2	13111	100
2025-5-24 9:8:41.553	WT901BLE68(801231B9234C)	-2.945	0.769	-0.120	-279.846	-48.279	222.473	164.79	83.92	66.68	33.320	4.410	-37.240	-0.55951	-0.59906	-0.47711	0.31668	17.2	13111	100
2025-5-24 9:8:41.553	WT901BLE68(801231B9234C)	-2.433	0.546	0.255	-229.431	-67.627	302.490	122.32	81.07	29.51	33.320	4.410	-37.240	-0.53738	-0.56882	-0.45261	0.42740	17.2	13111	100
2025-5-24 9:8:41.554	WT901BLE68(801231B9234C)	-3.010	0.585	0.629	-161.987	-66.589	259.277	100.40	75.92	11.40	33.320	4.410	-37.240	-0.53738	-0.56882	-0.45261	0.42740	17.2	13111	100
2025-5-24 9:8:41.554	WT901BLE68(801231B9234C)	-2.542	0.778	0.830	-144.836	100.708	169.006	97.93	71.89	12.29	33.320	4.410	-37.240	-0.53738	-0.56882	-0.45261	0.42740	17.2	13111	100
2025-5-24 9:8:41.554	WT901BLE68(801231B9234C)	-2.009	0.070	0.651	-101.074	113.525	163.025	99.77	68.20	17.08	33.320	4.410	-37.240	-0.53738	-0.56882	-0.45261	0.42740	17.2	13111	100
2025-5-24 9:8:41.554	WT901BLE68(801231B9234C)	-1.522	-0.253	0.485	-80.750	130.554	146.423	101.71	64.81	21.30	33.320	4.410	-37.240	-0.53738	-0.56882	-0.45261	0.42740	17.2	13111	100
2025-5-24 9:8:41.583	WT901BLE68(801231B9234C)	-1.087	-0.403	0.339	-62.500	115.479	133.728	103.43	61.76	24.91	33.320	4.410	-37.240	-0.53738	-0.56882	-0.45261	0.42740	17.2	13111	100
2025-5-24 9:8:41.584	WT901BLE68(801231B9234C)	-0.867	-0.433	0.245	-55.115	91.064	116.333	104.29	59.18	27.20	33.320	4.410	-37.240	-0.53738	-0.56882	-0.45261	0.42740	17.2	13111	100
2025-5-24 9:8:41.614	WT901BLE68(801231B9234C)	-0.728	-0.564	0.276	-53.833	78.552	95.337	104.68	57.15	28.82	33.320	4.410	-37.240	-0.53738	-0.56882	-0.45261	0.42740	17.2	13111	100
2025-5-24 9:8:41.614	WT901BLE68(801231B9234C)	-0.569	-0.701	0.337	-42.969	57.007	75.500	104.96	55.66	29.95	42.042	-5.390	-28.518	-0.53738	-0.56882	-0.45261	0.42740	17.2	13111	100
2025-5-24 9:8:41.672	WT901BLE68(801231B9234C)	-0.332	-1.008	0.423	-39.307	8.057	62.500	104.45	54.74	29.87	42.042	-5.390	-28.518	-0.53738	-0.56882	-0.45261	0.42740	17.2	13111	100
2025-5-24 9:8:41.672	WT901BLE68(801231B9234C)	-0.081	-1.003	0.449	-32.166	-41.138	24.902	103.05	54.68	28.30	42.042	-5.390	-28.518	-0.53738	-0.56882	-0.45261	0.42740	17.2	13111	100
2025-5-24 9:8:41.701	WT901BLE68(801231B9234C)	0.066	-1.015	0.394	-25.269	-73.425	-18.066	101.26	55.61	25.81	42.042	-5.390	-28.518	-0.53738	-0.56882	-0.45261	0.42740	17.2	13111	100
2025-5-24 9:8:41.701	WT901BLE68(801231B9234C)	-0.038	-1.002	0.273	-13.000	-71.899	-63.232	99.64	57.49	23.24	42.042	-5.390	-28.518	-0.53738	-0.56882	-0.45261	0.42740	17.2	13111	100
2025-5-24 9:8:41.733	WT901BLE68(801231B9234C)	-0.228	-0.838	0.219	4.089	-44.006	-110.046	99.15	60.19	21.66	42.042	-5.390	-28.518	-0.53738	-0.56882	-0.45261	0.42740	17.2	13111	100
2025-5-24 9:8:41.733	WT901BLE68(801231B9234C)	-0.552	-0.739	0.238	29.724	-32.776	-142.212	100.06	63.66	21.28	42.042	-5.390	-28.518	-0.53738	-0.56882	-0.45261	0.42740	17.2	13111	100
2025-5-24 9:8:41.794	WT901BLE68(801231B9234C)	-1.119	-0.639	0.255	51.575	-46.204	-172.974	101.75	67.76	21.23	42.042	-5.390	-28.518	-0.53738	-0.56882	-0.45261	0.42740	17.2	13111	100
2025-5-24 9:8:41.794	WT901BLE68(801231B9234C)	-2.433	-0.670	0.337	61.401	-74.097	-184.021	102.93	72.26	20.36	42.042	-5.390	-28.518	-0.53738	-0.56882	-0.45261	0.42740	17.2	13111	100
2025-5-24 9:8:41.824	WT901BLE68(801231B9234C)	-2.981	-0.771	0.655	53.711	-89.539	-213.684	102.93	77.25	18.39	42.042	-5.390	-28.518	-0.53738	-0.56882	-0.45261	0.42740	17.2	13111	100
2025-5-24 9:8:41.824	WT901BLE68(801231B9234C)	-3.807	-0.358	0.806	66.223	-209.595	-166.626	91.02	81.91	4.35	42.042	-5.390	-28.518	-0.54376	-0.50574	-0.46463	0.48227	17.2	13111	100
2025-5-24 9:8:41.854	WT901BLE68(801231B9234C)	-3.534	0.196	0.714	41.260	-254.272	-191.895	46.43	83.95	-42.25	42.042	-5.390	-28.518	-0.54376	-0.50574	-0.46463	0.48227	17.2	13111	100
2025-5-24 9:8:41.854	WT901BLE68(801231B9234C)	-1.692	0.803	0.776	10.864	-332.825	-192.749	4.00	79.90	-85.70	42.042	-5.390	-28.518	-0.54376	-0.50574	-0.46463	0.48227	17.2	13111	100
2025-5-24 9:8:41.912	WT901BLE68(801231B9234C)	-1.040	1.582	0.283	81.970	-152.466	-152.222	-9.35	74.69	-100.32	42.042	-5.390	-28.518	-0.54376	-0.50574	-0.46463	0.48227	17.2	13111	100
2025-5-24 9:8:41.912	WT901BLE68(801231B9234C)	-1.075	0.755	0.384	64.636	119.019	-201.782	-20.65	74.47	-113.37	42.042	-5.390	-28.518	-0.54376	-0.50574	-0.46463	0.48227	17.2	13111	100
2025-5-24 9:8:41.941	WT901BLE68(801231B9234C)	-0.982	0.443	0.245	140.320	253.967	-194.458	-38.53	76.33	-133.86	42.042	-5.390	-28.518	-0.54376	-0.50574	-0.46463	0.48227	17.2	13111	100
2025-5-24 9:8:41.941	WT901BLE68(801231B9234C)	-0.652	0.855	0.097	180.908	275.391	-153.076	-60.99	77.52	-160.21	42.042	-5.390	-28.518	-0.54376	-0.50574	-0.46463	0.48227	17.2	13111	100
2025-5-24 9:8:41.972	WT901BLE68(801231B9234C)	-0.411	0.795	0.059	181.641	245.972	-93.506	-81.25	77.37	175.68	42.042	-5.390	-28.518	-0.54376	-0.50574	-0.46463	0.48227	17.2	13111	100
2025-5-24 9:8:41.972	WT901BLE68(801231B9234C)	-0.280	0.744	0.008	176.880	178.650	-47.791	-95.14	76.65	158.20	42.042	-5.390	-28.518	-0.54376	-0.50574	-0.46463	0.48227	17.2	13111	100
2025-5-24 9:8:42.32	WT901BLE68(801231B9234C)	0.028	0.810	-0.013	158.691	73.486	-20.020	-100.95	76.22	149.38	42.042	-5.390	-28.518	-0.54376	-0.50574	-0.46463	0.48227	17.2	13111	100
2025-5-24 9:8:42.32	WT901BLE68(801231B9234C)	0.460	0.979	-0.072	134.583	-17.822	-3.174	-99.74	76.49	148.30	42.042	-5.390	-28.518	-0.54376	-0.50574	-0.46463	0.48227	17.2	13111	100
2025-5-24 9:8:42.63	WT901BLE68(801231B9234C)	0.581	1.016	-0.117	80.994	-60.974	16.113	-94.84	77.34	151.93	34.692	2.744	-35.966	-0.54376	-0.50574	-0.46463	0.48227	17.2	13111	100
2025-5-24 9:8:42.64	WT901BLE68(801231B9234C)	0.396	0.785	-0.130	12.756	-34.851	37.781	-91.56	78.60	155.28	34.692	2.744	-35.966	-0.54376	-0.50574	-0.46463	0.48227	17.2	13111	100
2025-5-24 9:8:42.183	WT901BLE68(801231B9234C)	0.132	0.614	-0.175	-35.645	12.939	70.190	-94.09	80.45	153.78	34.692	2.744	-35.966	-0.54376	-0.50574	-0.46463	0.48227	17.2	13111	100
2025-5-24 9:8:42.183	WT901BLE68(801231B9234C)	-0.212	0.727	-0.078	-81.116	30.823	115.723	-104.52	82.99	145.14	34.692	2.744	-35.966	-0.54376	-0.50574	-0.46463	0.48227	17.2	13111	100
2025-5-24 9:8:42.273	WT901BLE68(801231B9234C)	-0.973	0.797	0.091	-140.930	4.456	179.016	-130.39	86.16	122.12	34.692	2.744	-35.966	-0.54376	-0.50574	-0.46463	0.48227	17.2	13111	100
2025-5-24 9:8:42.273	WT901BLE68(801231B9234C)	-2.458	0.815	0.100	-198.792	-28.320	228.394	147.58	87.11	44.11	34.692	2.744	-35.966	-0.54376	-0.50574	-0.46463	0.48227	17.2	13111	100
2025-5-24 9:8:42.274	WT901BLE68(801231B9234C)	-2.429	0.835	0.251	-213.440	-54.688	244.141	104.24	83.01	5.41	34.692	2.744	-35.966	-0.54376	-0.50574	-0.46463	0.48227	17.2	13111	100
2025-5-24 9:8:42.274	WT901BLE68(801231B9234C)	-2.630	0.790	0.869	-162.292	-93.994	317.871	88.84	76.93	-6.07	34.692	2.744	-35.966	-0.54376	-0.50574	-0.46463	0.48227	17.2	13111	100
2025-5-24 9:8:42.275	WT901BLE68(801231B9234C)	-2.800	1.076	1.178	-133.118	-5.859	195.374	83.28	71.63	-8.48	34.692	2.744	-35.966	-0.54376	-0.50574	-0.46463	0.48227	17.2	13111	100
2025-5-24 9:8:42.275	WT901BLE68(801231B9234C)	-2.001	0.522	1.022	-102.051	82.214	147.461	84.48	68.46	-4.27	34.692	2.744	-35.966	-0.54376	-0.50574	-0.46463	0.48227	17.2	13111	100
2025-5-24 9:8:42.276	WT901BLE68(801231B9234C)	-1.628	0.065	0.702	-62.927	95.398	124.146	87.13	65.90	0.55	34.692	2.744	-35.966	-0.54376	-0.50574	-0.46463	0.48227	17.2	13111	100
2025-5-24 9:8:42.276	WT901BLE68(801231B9234C)	-1.283	-0.203	0.591	-55.176	109.558	114.014	89.96	63.63	5.20	34.692	2.744	-35.966	-0.54376	-0.50574	-0.46463	0.48227	17.2	13111	100
2025-5-24 9:8:42.304	WT901BLE68(801231B9234C)	-1.042	-0.313	0.467	-49.072	93.262	103.394	92.18	61.57	8.99	34.692	2.744	-35.966	-0.54376	-0.50574	-0.46463	0.48227	17.2	13111	100
2025-5-24 9:8:42.304	WT901BLE68(801231B9234C)	-0.874	-0.338	0.398	-55.359	76.050	83.496	93.36	59.89	11.58	34.692	2.744	-35.966	-0.62906	-0.59811	-0.40164	0.29175	17.2	13111	100
2025-5-24 9:8:42.334	WT901BLE68(801231B9234C)	-0.694	-0.423	0.359	-60.852	63.354	60.669	93.89	58.75	13.49	34.692	2.744	-35.966	-0.62906	-0.59811	-0.40164	0.29175	17.2	13111	100
2025-5-24 9:8:42.334	WT901BLE68(801231B9234C)	-0.479	-0.504	0.338	-60.608	44.006	44.861	93.92	58.07	14.71	34.692	2.744	-35.966	-0.62906	-0.59811	-0.40164	0.29175	17.2	13111	100
2025-5-24 9:8:42.394	WT901BLE68(801231B9234C)	-0.218	-0.635	0.384	-56.030	14.954	31.128	93.36	57.78	14.99	34.692	2.744	-35.966	-0.62906	-0.59811	-0.40164	0.29175	17.2	13111	100
2025-5-24 9:8:42.394	WT901BLE68(801231B9234C)	0.035	-0.816	0.430	-51.514	-22.278	9.155	91.98	57.97	14.00	34.692	2.744	-35.966	-0.62906	-0.59811	-0.40164	0.29175	17.2	13111	100
2025-5-24 9:8:42.424	WT901BLE68(801231B9234C)	0.197	-1.191	0.397	-44.434	-51.270	-26.855	89.75	58.90	11.81	34.692	2.744	-35.966	-0.62906	-0.59811	-0.40164	0.29175	17.2	13111	100
2025-5-24 9:8:42.425	WT901BLE68(801231B9234C)	0.108	-1.128	0.309	-31.189	-43.274	-76.904	87.60	60.77	9.35	38.416	-6.958	-31.850	-0.62906	-0.59811	-0.40164	0.29175	17.2	13111	100
2025-5-24 9:8:42.454	WT901BLE68(801231B9234C)	-0.100	-0.795	0.210	-14.709	-15.869	-119.873	86.50	63.67	7.69	38.416	-6.958	-31.850	-0.62906	-0.59811	-0.40164	0.29175	17.2	13111	100
2025-5-24 9:8:42.454	WT901BLE68(801231B9234C)	-0.431	-0.688	0.238	6.653	-1.526	-158.630	86.58	67.36	6.92	38.416	-6.958	-31.850	-0.62906	-0.59811	-0.40164	0.29175	17.2	13111	100
2025-5-24 9:8:42.542	WT901BLE68(801231B9234C)	-1.023	-0.679	0.254	25.330	-11.108	-196.167	86.80	71.86	5.93	38.416	-6.958	-31.850	-0.62906	-0.59811	-0.40164	0.29175	17.2	13111	100
2025-5-24 9:8:42.542	WT901BLE68(801231B9234C)	-2.401	-0.848	0.373	35.645	-28.137	-211.426	85.86	76.77	3.52	38.416	-6.958	-31.850	-0.62906	-0.59811	-0.40164	0.29175	17.2	13111	100
2025-5-24 9:8:42.543	WT901BLE68(801231B9234C)	-3.127	-1.027	0.787	30.273	-67.993	-223.633	78.86	81.71	-4.97	38.416	-6.958	-31.850	-0.62906	-0.59811	-0.40164	0.29175	17.2	13111	100
2025-5-24 9:8:42.543	WT901BLE68(801231B9234C)	-3.734	-0.498	0.958	55.847	-183.350	-174.805	46.77	84.58	-38.79	38.416	-6.958	-31.850	-0.62906	-0.59811	-0.40164	0.29175	17.2	13111	100
2025-5-24 9:8:42.601	WT901BLE68(801231B9234C)	-2.938	0.130	0.680	37.109	-238.770	-206.909	1.84	81.96	-85.48	38.416	-6.958	-31.850	-0.62906	-0.59811	-0.40164	0.29175	17.2	13111	100
2025-5-24 9:8:42.601	WT901BLE68(801231B9234C)	-1.684	0.658	0.560	34.241	-229.980	-192.383	-15.50	76.60	-103.93	38.416	-6.958	-31.850	-0.62906	-0.59811	-0.40164	0.29175	17.2	13111	100
2025-5-24 9:8:42.635	WT901BLE68(801231B9234C)	-1.500	1.274	0.351	99.731	-15.930	-185.242	-24.19	73.21	-114.46	38.416	-6.958	-31.850	-0.62906	-0.59811	-0.40164	0.29175	17.2	13111	100
2025-5-24 9:8:42.635	WT901BLE68(801231B9234C)	-1.334	0.760	0.489	103.882	178.711	-206.848	-37.01	73.38	-129.83	38.416	-6.958	-31.850	-0.45819	-0.41696	-0.47974	0.62125	17.2	13111	100
2025-5-24 9:8:42.664	WT901BLE68(801231B9234C)	-0.964	0.499	0.352	172.241	220.520	-175.781	-52.37	73.93	-148.63	38.416	-6.958	-31.850	-0.45819	-0.41696	-0.47974	0.62125	17.2	13111	100
2025-5-24 9:8:42.664	WT901BLE68(801231B9234C)	-0.561	0.848	0.235	194.580	205.017	-130.676	-65.36	73.82	-165.84	38.416	-6.958	-31.850	-0.45819	-0.41696	-0.47974	0.62125	17.2	13111	100
2025-5-24 9:8:42.721	WT901BLE68(801231B9234C)	-0.267	0.850	0.167	184.937	185.547	-80.078	-75.42	73.64	-179.86	38.416	-6.958	-31.850	-0.45819	-0.41696	-0.47974	0.62125	17.2	13111	100
2025-5-24 9:8:42.722	WT901BLE68(801231B9234C)	-0.100	0.796	0.085	167.542	148.010	-42.786	-82.99	73.61	169.10	38.416	-6.958	-31.850	-0.45819	-0.41696	-0.47974	0.62125	17.2	13111	100
2025-5-24 9:8:42.751	WT901BLE68(801231B9234C)	0.115	0.850	0.019	142.639	88.196	-19.348	-87.53	73.77	161.76	38.416	-6.958	-31.850	-0.45819	-0.41696	-0.47974	0.62125	17.2	13111	100
2025-5-24 9:8:42.751	WT901BLE68(801231B9234C)	0.374	0.941	-0.021	108.276	26.184	-2.869	-88.74	74.18	158.65	38.416	-6.958	-31.850	-0.45819	-0.41696	-0.47974	0.62125	17.2	13111	100
2025-5-24 9:8:42.781	WT901BLE68(801231B9234C)	0.389	0.918	-0.042	49.622	-7.751	22.583	-88.15	75.06	158.46	38.416	-6.958	-31.850	-0.45819	-0.41696	-0.47974	0.62125	17.2	13111	100
2025-5-24 9:8:42.781	WT901BLE68(801231B9234C)	0.265	0.622	-0.094	-15.808	5.127	47.119	-88.79	76.53	158.38	38.416	-6.958	-31.850	-0.45819	-0.41696	-0.47974	0.62125	17.2	13111	100
2025-5-24 9:8:42.872	WT901BLE68(801231B9234C)	0.105	0.496	-0.112	-66.345	31.372	78.186	-93.58	78.57	155.20	38.416	-6.958	-31.850	-0.45819	-0.41696	-0.47974	0.62125	17.2	13111	100
2025-5-24 9:8:42.872	WT901BLE68(801231B9234C)	-0.154	0.664	-0.051	-110.718	24.231	123.047	-102.83	81.30	148.36	38.416	-6.958	-31.850	-0.45819	-0.41696	-0.47974	0.62125	17.2	13111	100
2025-5-24 9:8:42.873	WT901BLE68(801231B9234C)	-0.934	0.733	0.048	-170.593	-9.216	176.880	-119.85	84.83	134.80	34.790	0.686	-35.672	-0.45819	-0.41696	-0.47974	0.62125	17.2	13111	100
2025-5-24 9:8:42.873	WT901BLE68(801231B9234C)	-2.712	0.735	0.102	-231.689	-42.236	206.238	-179.52	87.83	79.77	34.790	0.686	-35.672	-0.45819	-0.41696	-0.47974	0.62125	17.2	13111	100
2025-5-24 9:8:42.904	WT901BLE68(801231B9234C)	-2.575	0.758	0.174	-255.981	-77.576	217.590	106.06	85.47	10.84	34.790	0.686	-35.672	-0.45819	-0.41696	-0.47974	0.62125	17.2	13111	100
2025-5-24 9:8:42.904	WT901BLE68(801231B9234C)	-2.613	0.683	0.637	-193.115	-160.339	329.956	81.50	79.35	-9.17	34.790	0.686	-35.672	-0.45819	-0.41696	-0.47974	0.62125	17.2	13111	100
2025-5-24 9:8:42.962	WT901BLE68(801231B9234C)	-2.752	0.977	1.125	-154.724	-75.745	226.746	72.92	73.17	-14.24	34.790	0.686	-35.672	-0.45819	-0.41696	-0.47974	0.62125	17.2	13111	100
2025-5-24 9:8:42.962	WT901BLE68(801231B9234C)	-2.092	0.426	1.164	-106.323	41.687	185.730	73.59	69.36	-10.42	34.790	0.686	-35.672	-0.45819	-0.41696	-0.47974	0.62125	17.2	13111	100
2025-5-24 9:8:42.992	WT901BLE68(801231B9234C)	-1.781	-0.046	0.859	-63.538	89.844	153.503	77.16	66.46	-4.64	34.790	0.686	-35.672	-0.45819	-0.41696	-0.47974	0.62125	17.2	13111	100
2025-5-24 9:8:42.992	WT901BLE68(801231B9234C)	-1.407	-0.302	0.746	-45.288	101.563	135.986	80.99	64.09	0.93	34.790	0.686	-35.672	-0.45819	-0.41696	-0.47974	0.62125	17.2	13111	100
2025-5-24 9:8:43.21	WT901BLE68(801231B9234C)	-1.098	-0.336	0.608	-39.551	58.899	117.126	83.30	61.98	4.56	34.790	0.686	-35.672	-0.45819	-0.41696	-0.47974	0.62125	17.2	13111	100
2025-5-24 9:8:43.21	WT901BLE68(801231B9234C)	-0.797	-0.373	0.503	-50.598	15.564	97.534	83.40	60.19	5.75	34.790	0.686	-35.672	-0.45819	-0.41696	-0.47974	0.62125	17.2	13111	100
2025-5-24 9:8:43.82	WT901BLE68(801231B9234C)	-0.562	-0.505	0.415	-58.838	1.709	81.421	82.39	58.80	5.78	34.790	0.686	-35.672	-0.67642	-0.55704	-0.39050	0.28207	17.2	13111	100
2025-5-24 9:8:43.82	WT901BLE68(801231B9234C)	-0.358	-0.594	0.352	-62.622	6.470	68.726	81.27	57.75	5.69	34.790	0.686	-35.672	-0.67642	-0.55704	-0.39050	0.28207	17.2	13111	100
2025-5-24 9:8:43.111	WT901BLE68(801231B9234C)	-0.122	-0.715	0.334	-64.453	9.338	50.964	80.33	57.09	5.67	34.790	0.686	-35.672	-0.67642	-0.55704	-0.39050	0.28207	17.2	13111	100
2025-5-24 9:8:43.111	WT901BLE68(801231B9234C)	0.059	-0.871	0.337	-61.523	0.122	22.156	79.26	57.00	5.31	34.790	0.686	-35.672	-0.67642	-0.55704	-0.39050	0.28207	17.2	13111	100
2025-5-24 9:8:43.142	WT901BLE68(801231B9234C)	0.158	-1.300	0.389	-61.646	-12.878	-22.461	77.77	57.65	4.33	34.790	0.686	-35.672	-0.67642	-0.55704	-0.39050	0.28207	17.2	13111	100
2025-5-24 9:8:43.142	WT901BLE68(801231B9234C)	0.037	-0.911	0.333	-39.001	-7.324	-75.134	76.32	59.41	2.82	34.790	0.686	-35.672	-0.67642	-0.55704	-0.39050	0.28207	17.2	13111	100
2025-5-24 9:8:43.231	WT901BLE68(801231B9234C)	-0.155	-0.775	0.275	-20.447	5.432	-117.676	75.15	62.28	1.26	34.790	0.686	-35.672	-0.67642	-0.55704	-0.39050	0.28207	17.2	13111	100
2025-5-24 9:8:43.232	WT901BLE68(801231B9234C)	-0.336	-0.666	0.297	5.554	-7.874	-155.762	73.80	65.87	-0.97	34.790	0.686	-35.672	-0.67642	-0.55704	-0.39050	0.28207	17.2	13111	100
2025-5-24 9:8:43.233	WT901BLE68(801231B9234C)	-0.771	-0.643	0.269	34.973	-41.687	-187.256	70.55	69.94	-5.80	34.790	0.686	-35.672	-0.67642	-0.55704	-0.39050	0.28207	17.2	13111	100
2025-5-24 9:8:43.233	WT901BLE68(801231B9234C)	-2.118	-0.751	0.437	58.228	-62.927	-201.355	64.04	73.98	-14.50	33.418	1.764	-34.006	-0.67642	-0.55704	-0.39050	0.28207	17.2	13111	100
2025-5-24 9:8:43.264	WT901BLE68(801231B9234C)	-3.016	-0.886	0.936	59.204	-94.727	-221.680	50.64	77.45	-30.31	33.418	1.764	-34.006	-0.67642	-0.55704	-0.39050	0.28207	17.2	13111	100
2025-5-24 9:8:43.264	WT901BLE68(801231B9234C)	-3.857	-0.731	1.293	53.589	-276.672	-174.072	26.48	77.46	-56.70	33.418	1.764	-34.006	-0.67642	-0.55704	-0.39050	0.28207	17.2	13111	100
2025-5-24 9:8:43.321	WT901BLE68(801231B9234C)	-2.594	-0.048	1.347	28.442	-413.269	-179.565	6.91	71.13	-78.31	33.418	1.764	-34.006	-0.67642	-0.55704	-0.39050	0.28207	17.2	13111	100
2025-5-24 9:8:43.322	WT901BLE68(801231B9234C)	-1.290	0.523	1.220	-13.428	-364.075	-165.405	-2.13	63.34	-88.31	33.418	1.764	-34.006	-0.67642	-0.55704	-0.39050	0.28207	17.2	13111	100
2025-5-24 9:8:43.351	WT901BLE68(801231B9234C)	-1.512	1.361	1.354	-12.390	-54.871	-172.485	-8.57	59.41	-95.21	33.418	1.764	-34.006	-0.67642	-0.55704	-0.39050	0.28207	17.2	13111	100
2025-5-24 9:8:43.351	WT901BLE68(801231B9234C)	-1.350	0.688	1.090	0.549	168.335	-220.825	-15.68	60.70	-103.15	33.418	1.764	-34.006	-0.67642	-0.55704	-0.39050	0.28207	17.2	13111	100
2025-5-24 9:8:43.381	WT901BLE68(801231B9234C)	-1.060	0.273	0.702	49.683	231.384	-225.769	-25.37	63.28	-114.71	33.418	1.764	-34.006	-0.67642	-0.55704	-0.39050	0.28207	17.2	13111	100
2025-5-24 9:8:43.381	WT901BLE68(801231B9234C)	-0.608	0.558	0.454	90.881	215.698	-200.195	-35.26	65.15	-127.23	33.418	1.764	-34.006	-0.67642	-0.55704	-0.39050	0.28207	17.2	13111	100
2025-5-24 9:8:43.472	WT901BLE68(801231B9234C)	-0.154	0.802	0.304	116.272	203.369	-167.786	-44.21	66.23	-139.19	33.418	1.764	-34.006	-0.67642	-0.55704	-0.39050	0.28207	17.2	13111	100
2025-5-24 9:8:43.472	WT901BLE68(801231B9234C)	0.091	0.914	0.138	133.240	206.116	-131.592	-52.16	67.10	-150.33	33.418	1.764	-34.006	-0.67642	-0.55704	-0.39050	0.28207	17.2	13111	100
2025-5-24 9:8:43.473	WT901BLE68(801231B9234C)	0.106	1.071	-0.002	133.789	209.106	-102.539	-59.95	68.03	-161.28	33.418	1.764	-34.006	-0.38901	-0.40891	-0.48508	0.66788	17.2	13111	100
2025-5-24 9:8:43.473	WT901BLE68(801231B9234C)	0.126	1.205	-0.104	112.305	164.917	-66.895	-66.92	68.87	-170.91	33.418	1.764	-34.006	-0.38901	-0.40891	-0.48508	0.66788	17.2	13111	100
2025-5-24 9:8:43.503	WT901BLE68(801231B9234C)	0.208	1.166	-0.099	69.763	74.524	-22.949	-70.93	69.65	-176.54	33.418	1.764	-34.006	-0.38901	-0.40891	-0.48508	0.66788	17.2	13111	100
2025-5-24 9:8:43.503	WT901BLE68(801231B9234C)	0.232	0.860	-0.105	26.550	-17.029	28.076	-70.60	70.73	-176.48	33.418	1.764	-34.006	-0.38901	-0.40891	-0.48508	0.66788	17.2	13111	100
2025-5-24 9:8:43.562	WT901BLE68(801231B9234C)	0.227	0.742	-0.155	-9.705	-43.823	82.092	-67.07	72.46	-172.28	33.418	1.764	-34.006	-0.38901	-0.40891	-0.48508	0.66788	17.2	13111	100
2025-5-24 9:8:43.562	WT901BLE68(801231B9234C)	0.113	0.703	-0.057	-47.913	-27.039	146.790	-61.98	75.27	-165.74	33.418	1.764	-34.006	-0.38901	-0.40891	-0.48508	0.66788	17.2	13111	100
2025-5-24 9:8:43.591	WT901BLE68(801231B9234C)	-0.618	0.671	0.176	-93.567	-15.747	222.168	-52.32	79.27	-153.79	33.418	1.764	-34.006	-0.38901	-0.40891	-0.48508	0.66788	17.2	13111	100
2025-5-24 9:8:43.591	WT901BLE68(801231B9234C)	-2.271	0.612	0.318	-149.475	-30.579	267.029	-26.20	82.97	-124.32	33.418	1.764	-34.006	-0.38901	-0.40891	-0.48508	0.66788	17.2	13111	100
2025-5-24 9:8:43.623	WT901BLE68(801231B9234C)	-2.667	0.506	0.488	-198.608	-110.840	263.977	15.25	82.21	-78.40	33.418	1.764	-34.006	-0.38901	-0.40891	-0.48508	0.66788	17.2	13111	100
2025-5-24 9:8:43.623	WT901BLE68(801231B9234C)	-2.195	0.225	1.053	-150.024	-277.405	354.858	32.93	75.52	-56.48	33.418	1.764	-34.006	-0.38901	-0.40891	-0.48508	0.66788	17.2	13111	100
2025-5-24 9:8:43.682	WT901BLE68(801231B9234C)	-2.170	0.332	1.675	-109.436	-262.756	321.777	37.22	66.43	-49.02	22.834	3.920	-39.592	-0.38901	-0.40891	-0.48508	0.66788	17.2	13111	100
2025-5-24 9:8:43.682	WT901BLE68(801231B9234C)	-1.836	0.187	1.653	-91.187	-42.908	248.840	40.44	60.99	-42.82	22.834	3.920	-39.592	-0.38901	-0.40891	-0.48508	0.66788	17.2	13111	100
2025-5-24 9:8:43.711	WT901BLE68(801231B9234C)	-1.856	-0.106	1.460	-66.467	101.807	172.852	44.96	58.99	-35.58	22.834	3.920	-39.592	-0.38901	-0.40891	-0.48508	0.66788	17.2	13111	100
2025-5-24 9:8:43.711	WT901BLE68(801231B9234C)	-1.356	-0.210	1.271	-50.293	135.071	122.131	49.67	58.70	-28.54	22.834	3.920	-39.592	-0.38901	-0.40891	-0.48508	0.66788	17.2	13111	100
2025-5-24 9:8:43.742	WT901BLE68(801231B9234C)	-0.835	-0.253	0.925	-41.504	87.463	94.849	53.06	58.43	-23.37	22.834	3.920	-39.592	-0.38901	-0.40891	-0.48508	0.66788	17.2	13111	100
2025-5-24 9:8:43.742	WT901BLE68(801231B9234C)	-0.502	-0.365	0.686	-40.344	72.021	69.275	55.07	58.09	-19.92	22.834	3.920	-39.592	-0.38901	-0.40891	-0.48508	0.66788	17.2	13111	100
2025-5-24 9:8:43.804	WT901BLE68(801231B9234C)	-0.292	-0.422	0.495	-36.682	97.717	46.265	56.95	58.28	-16.73	22.834	3.920	-39.592	-0.38901	-0.40891	-0.48508	0.66788	17.2	13111	100
2025-5-24 9:8:43.804	WT901BLE68(801231B9234C)	-0.210	-0.483	0.325	-30.762	129.944	31.433	59.50	59.09	-12.96	22.834	3.920	-39.592	-0.38901	-0.40891	-0.48508	0.66788	17.2	13111	100
2025-5-24 9:8:43.834	WT901BLE68(801231B9234C)	-0.194	-0.583	0.229	-26.611	147.827	21.423	62.89	60.30	-8.49	22.834	3.920	-39.592	-0.38901	-0.40891	-0.48508	0.66788	17.2	13111	100
2025-5-24 9:8:43.834	WT901BLE68(801231B9234C)	-0.147	-0.749	0.284	-18.005	113.037	9.583	66.20	61.55	-4.48	22.834	3.920	-39.592	-0.38901	-0.40891	-0.48508	0.66788	17.2	13111	100
