time	DeviceName	AccX(g)	AccY(g)	AccZ(g)	AsX(°/s)	AsY(°/s)	AsZ(°/s)	AngleX(°)	AngleY(°)	AngleZ(°)	HX(uT)	HY(uT)	HZ(uT)	Q0()	Q1()	Q2()	Q3()	Temperature(°C)	Version()	Battery level(%)
2025-5-24 8:37:22.844	WT901BLE68(801231B9234C)	-2.261	1.852	0.289	-17.395	133.362	252.502	58.77	45.58	165.22	16.170	-42.924	16.268	0.45798	-0.30630	0.36365	0.75104	23.0	13111	100
2025-5-24 8:37:22.845	WT901BLE68(801231B9234C)	-2.424	1.586	0.297	-24.536	185.547	253.784	63.65	42.46	172.24	16.170	-42.924	16.268	0.45798	-0.30630	0.36365	0.75104	23.0	13111	100
2025-5-24 8:37:22.845	WT901BLE68(801231B9234C)	-2.642	1.188	0.180	-44.312	222.534	233.032	68.09	39.65	179.68	16.170	-42.924	16.268	0.45798	-0.30630	0.36365	0.75104	23.0	13111	100
2025-5-24 8:37:22.845	WT901BLE68(801231B9234C)	-2.529	0.861	0.101	-63.843	223.389	212.341	71.57	37.11	-173.10	16.170	-42.924	16.268	0.45798	-0.30630	0.36365	0.75104	23.0	13111	100
2025-5-24 8:37:22.874	WT901BLE68(801231B9234C)	-2.271	0.511	0.052	-72.815	189.026	190.857	73.81	34.66	-166.84	16.170	-42.924	16.268	0.45798	-0.30630	0.36365	0.75104	23.0	13111	100
2025-5-24 8:37:22.874	WT901BLE68(801231B9234C)	-1.982	0.208	0.086	-77.759	146.667	152.222	74.94	32.57	-161.90	22.638	-38.318	21.658	0.45798	-0.30630	0.36365	0.75104	23.0	13111	100
2025-5-24 8:37:22.962	WT901BLE68(801231B9234C)	-1.580	-0.119	0.279	-77.209	97.595	114.136	75.13	31.04	-158.35	22.638	-38.318	21.658	0.45798	-0.30630	0.36365	0.75104	23.0	13111	100
2025-5-24 8:37:22.962	WT901BLE68(801231B9234C)	-1.197	-0.389	0.431	-73.242	35.156	80.139	74.54	29.99	-156.31	22.638	-38.318	21.658	0.45798	-0.30630	0.36365	0.75104	23.0	13111	100
2025-5-24 8:37:22.991	WT901BLE68(801231B9234C)	-0.896	-0.211	0.260	-86.792	-22.278	55.054	72.86	29.25	-155.85	22.638	-38.318	21.658	0.45798	-0.30630	0.36365	0.75104	23.0	13111	100
2025-5-24 8:37:22.991	WT901BLE68(801231B9234C)	-0.589	-1.043	0.438	-78.857	-59.753	16.479	70.60	28.91	-156.52	22.638	-38.318	21.658	0.45798	-0.30630	0.36365	0.75104	23.0	13111	100
2025-5-24 8:37:23.22	WT901BLE68(801231B9234C)	-0.444	-1.624	0.373	-25.269	-84.961	-28.687	68.45	29.25	-158.21	22.638	-38.318	21.658	0.45798	-0.30630	0.36365	0.75104	23.0	13111	100
2025-5-24 8:37:23.22	WT901BLE68(801231B9234C)	-0.422	-1.418	0.489	4.883	-94.238	-94.299	66.72	30.56	-160.80	22.638	-38.318	21.658	0.45798	-0.30630	0.36365	0.75104	23.0	13111	100
2025-5-24 8:37:23.54	WT901BLE68(801231B9234C)	-0.530	-1.050	0.469	9.766	-92.712	-141.968	64.75	32.81	-164.08	22.638	-38.318	21.658	0.45798	-0.30630	0.36365	0.75104	23.0	13111	100
2025-5-24 8:37:23.54	WT901BLE68(801231B9234C)	-0.614	-0.835	0.422	15.259	-84.045	-188.293	62.38	35.82	-167.95	22.638	-38.318	21.658	0.45798	-0.30630	0.36365	0.75104	23.0	13111	100
2025-5-24 8:37:23.84	WT901BLE68(801231B9234C)	-1.024	-0.727	0.286	58.289	-84.473	-202.820	59.82	39.20	-172.49	22.638	-38.318	21.658	0.45798	-0.30630	0.36365	0.75104	23.0	13111	100
2025-5-24 8:37:23.84	WT901BLE68(801231B9234C)	-1.512	-0.356	0.226	67.688	-96.130	-242.859	57.06	42.84	-177.87	22.638	-38.318	21.658	0.17087	-0.32578	0.44028	0.81897	23.0	13111	100
2025-5-24 8:37:23.143	WT901BLE68(801231B9234C)	-2.319	-0.110	0.168	77.332	-136.902	-254.211	53.12	46.14	175.16	22.638	-38.318	21.658	0.17087	-0.32578	0.44028	0.81897	23.0	13111	100
2025-5-24 8:37:23.143	WT901BLE68(801231B9234C)	-2.605	0.125	0.255	66.650	-182.068	-263.611	47.64	48.55	166.43	22.638	-38.318	21.658	0.17087	-0.32578	0.44028	0.81897	23.0	13111	100
2025-5-24 8:37:23.173	WT901BLE68(801231B9234C)	-2.840	0.524	0.221	54.016	-183.716	-264.954	40.96	49.97	156.68	22.638	-38.318	21.658	0.17087	-0.32578	0.44028	0.81897	23.0	13111	100
2025-5-24 8:37:23.173	WT901BLE68(801231B9234C)	-3.263	0.903	0.124	19.470	-115.234	-300.598	33.78	51.60	147.12	22.638	-38.318	21.658	0.17087	-0.32578	0.44028	0.81897	23.0	13111	100
2025-5-24 8:37:23.204	WT901BLE68(801231B9234C)	-2.849	1.629	-0.029	36.438	-145.996	-286.072	25.71	52.86	136.87	22.638	-38.318	21.658	0.17087	-0.32578	0.44028	0.81897	23.0	13111	100
2025-5-24 8:37:23.204	WT901BLE68(801231B9234C)	-2.046	1.310	-0.114	8.972	-197.449	-268.005	18.12	51.84	127.12	22.638	-38.318	21.658	0.17087	-0.32578	0.44028	0.81897	23.0	13111	100
2025-5-24 8:37:23.263	WT901BLE68(801231B9234C)	-1.514	1.258	-0.083	73.730	-144.348	-253.784	11.66	50.33	118.15	22.638	-38.318	21.658	0.17087	-0.32578	0.44028	0.81897	23.0	13111	100
2025-5-24 8:37:23.264	WT901BLE68(801231B9234C)	-1.259	1.358	-0.104	84.351	-38.818	-219.543	7.93	50.06	111.15	22.638	-38.318	21.658	0.17087	-0.32578	0.44028	0.81897	23.0	13111	100
2025-5-24 8:37:23.295	WT901BLE68(801231B9234C)	-1.024	2.094	-0.324	130.798	47.424	-190.308	5.79	51.43	105.42	39.690	-22.344	10.192	0.17087	-0.32578	0.44028	0.81897	23.0	13111	100
2025-5-24 8:37:23.295	WT901BLE68(801231B9234C)	-0.612	1.608	-0.255	152.710	48.950	-137.451	5.43	53.21	100.96	39.690	-22.344	10.192	0.17087	-0.32578	0.44028	0.81897	23.0	13111	100
2025-5-24 8:37:23.325	WT901BLE68(801231B9234C)	-0.240	1.394	-0.222	165.100	12.695	-89.050	6.77	54.16	97.89	39.690	-22.344	10.192	0.17087	-0.32578	0.44028	0.81897	23.0	13111	100
2025-5-24 8:37:23.325	WT901BLE68(801231B9234C)	0.072	1.154	-0.157	161.560	-7.629	-60.242	9.03	54.46	95.79	39.690	-22.344	10.192	0.17087	-0.32578	0.44028	0.81897	23.0	13111	100
2025-5-24 8:37:23.382	WT901BLE68(801231B9234C)	0.319	1.011	-0.187	148.376	-17.944	-38.147	11.78	54.38	94.47	39.690	-22.344	10.192	0.17087	-0.32578	0.44028	0.81897	23.0	13111	100
2025-5-24 8:37:23.382	WT901BLE68(801231B9234C)	0.509	0.912	-0.250	135.620	-8.301	-28.931	14.68	54.24	93.65	39.690	-22.344	10.192	0.17087	-0.32578	0.44028	0.81897	23.0	13111	100
2025-5-24 8:37:23.411	WT901BLE68(801231B9234C)	0.487	0.979	-0.234	103.577	24.536	-8.789	17.78	54.44	93.64	39.690	-22.344	10.192	0.17087	-0.32578	0.44028	0.81897	23.0	13111	100
2025-5-24 8:37:23.412	WT901BLE68(801231B9234C)	0.346	0.869	-0.244	36.072	67.566	6.104	20.69	55.17	94.78	39.690	-22.344	10.192	0.17087	-0.32578	0.44028	0.81897	23.0	13111	100
2025-5-24 8:37:23.445	WT901BLE68(801231B9234C)	0.171	0.676	-0.213	0.000	106.262	32.471	23.76	56.44	97.32	39.690	-22.344	10.192	0.17087	-0.32578	0.44028	0.81897	23.0	13111	100
2025-5-24 8:37:23.445	WT901BLE68(801231B9234C)	-0.068	0.708	-0.182	-31.494	125.854	74.951	27.86	57.67	101.79	39.690	-22.344	10.192	0.17087	-0.32578	0.44028	0.81897	23.0	13111	100
2025-5-24 8:37:23.504	WT901BLE68(801231B9234C)	-0.481	0.830	-0.068	-76.843	119.812	108.276	32.52	58.37	107.84	39.690	-22.344	10.192	0.58569	-0.23135	0.48004	0.61063	23.0	13111	100
2025-5-24 8:37:23.504	WT901BLE68(801231B9234C)	-1.160	1.043	-0.030	-136.047	89.294	137.451	36.46	58.05	114.37	39.690	-22.344	10.192	0.58569	-0.23135	0.48004	0.61063	23.0	13111	100
2025-5-24 8:37:23.532	WT901BLE68(801231B9234C)	-2.001	1.255	-0.135	-193.176	71.350	167.175	39.23	56.85	120.94	39.690	-22.344	10.192	0.58569	-0.23135	0.48004	0.61063	23.0	13111	100
2025-5-24 8:37:23.532	WT901BLE68(801231B9234C)	-2.284	1.016	0.156	-227.234	76.111	201.538	41.01	55.13	127.64	39.690	-22.344	10.192	0.58569	-0.23135	0.48004	0.61063	23.0	13111	100
2025-5-24 8:37:23.561	WT901BLE68(801231B9234C)	-2.585	0.799	0.435	-177.063	103.149	247.864	44.10	53.10	135.60	39.690	-22.344	10.192	0.58569	-0.23135	0.48004	0.61063	23.0	13111	100
2025-5-24 8:37:23.562	WT901BLE68(801231B9234C)	-2.841	1.135	0.455	-171.387	166.931	184.631	47.66	51.92	143.71	39.690	-22.344	10.192	0.58569	-0.23135	0.48004	0.61063	23.0	13111	100
2025-5-24 8:37:23.682	WT901BLE68(801231B9234C)	-2.465	0.769	0.521	-175.415	173.157	156.433	50.45	51.80	151.40	39.690	-22.344	10.192	0.58569	-0.23135	0.48004	0.61063	23.0	13111	100
2025-5-24 8:37:23.683	WT901BLE68(801231B9234C)	-2.213	0.356	0.327	-147.949	119.263	156.982	52.69	51.15	158.07	39.690	-22.344	10.192	0.58569	-0.23135	0.48004	0.61063	23.0	13111	100
2025-5-24 8:37:23.683	WT901BLE68(801231B9234C)	-1.903	0.024	0.264	-149.719	84.045	143.799	53.84	50.06	163.42	39.690	-22.344	10.192	0.58569	-0.23135	0.48004	0.61063	23.0	13111	100
2025-5-24 8:37:23.683	WT901BLE68(801231B9234C)	-1.433	-0.162	0.231	-129.944	38.025	124.695	53.95	48.82	167.32	39.690	-22.344	10.192	0.58569	-0.23135	0.48004	0.61063	23.0	13111	100
2025-5-24 8:37:23.684	WT901BLE68(801231B9234C)	-1.024	-0.287	0.198	-119.812	1.465	99.487	53.11	47.52	169.71	39.690	-22.344	10.192	0.58569	-0.23135	0.48004	0.61063	23.0	13111	100
2025-5-24 8:37:23.684	WT901BLE68(801231B9234C)	-0.637	-0.765	0.217	-149.841	2.136	79.712	51.65	46.52	171.35	39.690	-22.344	10.192	0.58569	-0.23135	0.48004	0.61063	23.0	13111	100
2025-5-24 8:37:23.744	WT901BLE68(801231B9234C)	-0.325	-1.072	0.207	-100.891	15.625	56.213	50.17	46.01	172.89	29.890	-37.044	16.856	0.58569	-0.23135	0.48004	0.61063	23.0	13111	100
2025-5-24 8:37:23.744	WT901BLE68(801231B9234C)	-0.150	-0.983	0.203	-63.049	17.578	39.795	49.14	45.98	174.23	29.890	-37.044	16.856	0.58569	-0.23135	0.48004	0.61063	23.0	13111	100
2025-5-24 8:37:23.776	WT901BLE68(801231B9234C)	-0.034	-1.226	0.430	-37.231	-8.179	-6.592	48.09	46.32	174.57	29.890	-37.044	16.856	0.58569	-0.23135	0.48004	0.61063	23.0	13111	100
2025-5-24 8:37:23.776	WT901BLE68(801231B9234C)	0.092	-1.308	0.494	-7.019	-42.419	-59.998	46.09	46.96	172.87	29.890	-37.044	16.856	0.58569	-0.23135	0.48004	0.61063	23.0	13111	100
2025-5-24 8:37:23.864	WT901BLE68(801231B9234C)	0.034	-1.076	0.279	15.686	-50.476	-83.008	43.49	47.82	169.88	29.890	-37.044	16.856	0.58569	-0.23135	0.48004	0.61063	23.0	13111	100
2025-5-24 8:37:23.865	WT901BLE68(801231B9234C)	-0.292	-0.854	0.155	60.120	-46.204	-119.812	40.94	48.92	166.09	29.890	-37.044	16.856	0.58569	-0.23135	0.48004	0.61063	23.0	13111	100
2025-5-24 8:37:23.865	WT901BLE68(801231B9234C)	-0.782	-0.649	0.126	116.577	-54.626	-164.551	38.34	50.52	160.96	29.890	-37.044	16.856	0.58569	-0.23135	0.48004	0.61063	23.0	13111	100
2025-5-24 8:37:23.865	WT901BLE68(801231B9234C)	-1.603	-0.471	0.246	185.730	-78.369	-198.975	35.94	51.98	154.38	29.890	-37.044	16.856	0.58569	-0.23135	0.48004	0.61063	23.0	13111	100
2025-5-24 8:37:23.953	WT901BLE68(801231B9234C)	-2.570	-0.161	0.434	191.162	-103.027	-225.037	32.83	53.21	146.24	29.890	-37.044	16.856	0.58569	-0.23135	0.48004	0.61063	23.0	13111	100
2025-5-24 8:37:23.953	WT901BLE68(801231B9234C)	-3.093	-0.208	0.730	163.208	-166.199	-215.942	28.60	53.46	137.41	29.890	-37.044	16.856	0.44336	-0.30862	0.36169	0.75977	23.0	13111	100
2025-5-24 8:37:23.954	WT901BLE68(801231B9234C)	-3.256	0.009	0.373	170.410	-244.995	-194.458	24.07	51.53	128.23	29.890	-37.044	16.856	0.44336	-0.30862	0.36169	0.75977	23.0	13111	100
2025-5-24 8:37:23.954	WT901BLE68(801231B9234C)	-2.945	0.558	0.203	104.309	-213.806	-243.286	19.27	49.23	119.23	29.890	-37.044	16.856	0.44336	-0.30862	0.36169	0.75977	23.0	13111	100
2025-5-24 8:37:23.983	WT901BLE68(801231B9234C)	-2.109	0.987	0.304	98.755	-191.406	-232.788	14.30	47.22	110.74	29.890	-37.044	16.856	0.44336	-0.30862	0.36169	0.75977	23.0	13111	100
2025-5-24 8:37:23.983	WT901BLE68(801231B9234C)	-1.833	1.635	0.139	90.088	-71.411	-178.894	11.58	46.04	104.94	29.890	-37.044	16.856	0.44336	-0.30862	0.36169	0.75977	23.0	13111	100
2025-5-24 8:37:24.12	WT901BLE68(801231B9234C)	-1.401	1.108	0.007	65.674	71.228	-180.847	9.22	47.60	100.30	29.890	-37.044	16.856	0.44336	-0.30862	0.36169	0.75977	23.0	13111	100
2025-5-24 8:37:24.12	WT901BLE68(801231B9234C)	-0.949	0.961	-0.182	93.567	112.915	-142.456	7.81	50.53	96.56	29.890	-37.044	16.856	0.44336	-0.30862	0.36169	0.75977	23.0	13111	100
2025-5-24 8:37:24.42	WT901BLE68(801231B9234C)	-0.334	0.736	-0.228	84.229	134.827	-90.515	7.48	53.75	93.77	29.890	-37.044	16.856	0.44336	-0.30862	0.36169	0.75977	23.0	13111	100
2025-5-24 8:37:24.42	WT901BLE68(801231B9234C)	-0.294	2.598	-0.354	82.703	134.705	-85.144	7.46	57.03	91.59	29.890	-37.044	16.856	0.44336	-0.30862	0.36169	0.75977	23.0	13111	100
2025-5-24 8:37:24.102	WT901BLE68(801231B9234C)	0.017	0.961	-0.073	67.932	104.126	-60.303	8.03	59.75	90.00	29.890	-37.044	16.856	0.44336	-0.30862	0.36169	0.75977	23.0	13111	100
2025-5-24 8:37:24.102	WT901BLE68(801231B9234C)	0.277	0.948	-0.033	54.443	52.429	-42.236	8.83	61.44	88.94	29.890	-37.044	16.856	0.44336	-0.30862	0.36169	0.75977	23.0	13111	100
2025-5-24 8:37:24.133	WT901BLE68(801231B9234C)	0.495	0.933	-0.047	24.658	9.827	-34.546	9.45	62.08	88.13	44.786	-6.958	14.896	0.44336	-0.30862	0.36169	0.75977	23.0	13111	100
2025-5-24 8:37:24.133	WT901BLE68(801231B9234C)	0.508	0.846	-0.084	-8.118	-12.146	-9.216	9.95	61.98	87.93	44.786	-6.958	14.896	0.44336	-0.30862	0.36169	0.75977	23.0	13111	100
2025-5-24 8:37:24.165	WT901BLE68(801231B9234C)	0.367	0.733	-0.151	-42.603	-4.822	16.235	11.06	61.62	89.02	44.786	-6.958	14.896	0.44336	-0.30862	0.36169	0.75977	23.0	13111	100
2025-5-24 8:37:24.165	WT901BLE68(801231B9234C)	0.155	0.790	-0.292	-86.060	26.978	54.199	12.63	61.48	91.59	44.786	-6.958	14.896	0.44336	-0.30862	0.36169	0.75977	23.0	13111	100
2025-5-24 8:37:24.223	WT901BLE68(801231B9234C)	-0.241	0.862	-0.244	-127.380	50.049	106.812	15.41	61.61	96.49	44.786	-6.958	14.896	0.44336	-0.30862	0.36169	0.75977	23.0	13111	100
2025-5-24 8:37:24.224	WT901BLE68(801231B9234C)	-1.191	0.957	-0.166	-182.922	41.260	170.349	19.31	61.21	103.78	44.786	-6.958	14.896	0.44336	-0.30862	0.36169	0.75977	23.0	13111	100
2025-5-24 8:37:24.313	WT901BLE68(801231B9234C)	-2.665	1.182	-0.327	-247.253	19.226	211.914	23.01	59.84	112.34	44.786	-6.958	14.896	0.44336	-0.30862	0.36169	0.75977	23.0	13111	100
2025-5-24 8:37:24.313	WT901BLE68(801231B9234C)	-2.720	1.074	0.007	-288.818	45.593	229.614	25.37	58.16	120.71	44.786	-6.958	14.896	0.44336	-0.30862	0.36169	0.75977	23.0	13111	100
2025-5-24 8:37:24.314	WT901BLE68(801231B9234C)	-2.974	0.784	0.328	-199.158	67.017	292.419	29.99	56.48	130.92	44.786	-6.958	14.896	0.44336	-0.30862	0.36169	0.75977	23.0	13111	100
2025-5-24 8:37:24.314	WT901BLE68(801231B9234C)	-2.973	1.234	0.248	-195.313	239.624	156.067	34.83	57.08	140.54	44.786	-6.958	14.896	0.41864	-0.33429	0.40408	0.74133	23.0	13111	100
2025-5-24 8:37:24.345	WT901BLE68(801231B9234C)	-2.380	0.537	0.092	-195.557	259.033	132.874	40.08	59.75	150.88	44.786	-6.958	14.896	0.41864	-0.33429	0.40408	0.74133	23.0	13111	100
2025-5-24 8:37:24.345	WT901BLE68(801231B9234C)	-1.995	-0.042	-0.046	-184.326	160.828	142.151	44.91	60.85	160.47	44.786	-6.958	14.896	0.41864	-0.33429	0.40408	0.74133	23.0	13111	100
2025-5-24 8:37:24.375	WT901BLE68(801231B9234C)	-1.645	-0.375	-0.099	-170.044	96.863	141.235	48.14	60.55	168.16	44.786	-6.958	14.896	0.41864	-0.33429	0.40408	0.74133	23.0	13111	100
2025-5-24 8:37:24.375	WT901BLE68(801231B9234C)	-1.244	-0.812	-0.069	-163.452	32.288	118.103	49.40	59.56	173.57	44.786	-6.958	14.896	0.41864	-0.33429	0.40408	0.74133	23.0	13111	100
2025-5-24 8:37:24.523	WT901BLE68(801231B9234C)	-0.828	-0.995	0.037	-137.878	0.183	91.736	48.98	58.40	176.69	44.786	-6.958	14.896	0.41864	-0.33429	0.40408	0.74133	23.0	13111	100
2025-5-24 8:37:24.524	WT901BLE68(801231B9234C)	-0.471	-0.827	0.020	-119.446	-11.841	66.101	47.69	57.52	178.41	44.786	-6.958	14.896	0.41864	-0.33429	0.40408	0.74133	23.0	13111	100
2025-5-24 8:37:24.524	WT901BLE68(801231B9234C)	-0.106	-1.064	0.165	-89.478	-15.015	43.518	46.32	56.95	179.48	44.786	-6.958	14.896	0.41864	-0.33429	0.40408	0.74133	23.0	13111	100
2025-5-24 8:37:24.525	WT901BLE68(801231B9234C)	0.202	-1.391	0.279	-58.594	-30.579	3.418	44.38	56.80	179.26	44.786	-6.958	14.896	0.41864	-0.33429	0.40408	0.74133	23.0	13111	100
2025-5-24 8:37:24.525	WT901BLE68(801231B9234C)	0.169	-1.212	0.349	-18.921	-40.771	-45.410	41.43	57.14	177.15	44.786	-6.958	14.896	0.41864	-0.33429	0.40408	0.74133	23.0	13111	100
2025-5-24 8:37:24.525	WT901BLE68(801231B9234C)	-0.064	-1.252	0.248	19.958	-27.222	-83.252	38.13	58.08	173.69	44.786	-6.958	14.896	0.41864	-0.33429	0.40408	0.74133	23.0	13111	100
2025-5-24 8:37:24.554	WT901BLE68(801231B9234C)	-0.428	-0.858	0.211	25.879	-5.127	-123.901	34.61	59.61	169.40	44.786	-6.958	14.896	0.41864	-0.33429	0.40408	0.74133	23.0	13111	100
2025-5-24 8:37:24.554	WT901BLE68(801231B9234C)	-0.919	-0.716	0.151	77.209	0.793	-148.682	30.40	61.40	163.81	44.786	-6.958	14.896	0.41864	-0.33429	0.40408	0.74133	23.0	13111	100
2025-5-24 8:37:24.584	WT901BLE68(801231B9234C)	-1.186	-0.578	0.217	156.006	-15.808	-216.858	25.38	63.40	155.56	30.772	-38.220	13.818	0.41864	-0.33429	0.40408	0.74133	23.0	13111	100
2025-5-24 8:37:24.585	WT901BLE68(801231B9234C)	-1.893	-0.396	0.009	167.847	-121.521	-247.620	17.52	64.00	143.49	30.772	-38.220	13.818	0.41864	-0.33429	0.40408	0.74133	23.0	13111	100
2025-5-24 8:37:24.615	WT901BLE68(801231B9234C)	-2.766	-0.445	0.239	146.362	-195.313	-268.921	8.15	61.91	129.97	30.772	-38.220	13.818	0.41864	-0.33429	0.40408	0.74133	23.0	13111	100
2025-5-24 8:37:24.615	WT901BLE68(801231B9234C)	-3.609	-0.634	0.623	127.808	-188.782	-256.348	0.58	58.71	118.67	30.772	-38.220	13.818	0.41864	-0.33429	0.40408	0.74133	23.0	13111	100
2025-5-24 8:37:24.676	WT901BLE68(801231B9234C)	-3.385	-0.363	0.306	143.921	-137.878	-236.206	-4.49	55.54	109.92	30.772	-38.220	13.818	0.41864	-0.33429	0.40408	0.74133	23.0	13111	100
2025-5-24 8:37:24.676	WT901BLE68(801231B9234C)	-2.669	0.094	-0.105	174.927	-105.652	-223.938	-7.70	53.09	102.60	30.772	-38.220	13.818	0.41864	-0.33429	0.40408	0.74133	23.0	13111	100
2025-5-24 8:37:24.705	WT901BLE68(801231B9234C)	-1.672	1.264	-0.209	185.608	-62.683	-184.387	-9.07	51.19	96.68	30.772	-38.220	13.818	0.41864	-0.33429	0.40408	0.74133	23.0	13111	100
2025-5-24 8:37:24.705	WT901BLE68(801231B9234C)	-1.390	1.533	-0.256	185.486	79.224	-142.639	-9.28	51.50	92.18	30.772	-38.220	13.818	0.61383	-0.36377	0.26663	0.64783	23.0	13111	100
2025-5-24 8:37:24.734	WT901BLE68(801231B9234C)	-1.129	1.054	-0.121	135.010	177.063	-154.236	-10.76	54.42	86.80	30.772	-38.220	13.818	0.61383	-0.36377	0.26663	0.64783	23.0	13111	100
2025-5-24 8:37:24.734	WT901BLE68(801231B9234C)	-0.546	0.438	0.020	151.672	152.588	-98.877	-12.37	57.70	81.73	30.772	-38.220	13.818	0.61383	-0.36377	0.26663	0.64783	23.0	13111	100
2025-5-24 8:37:24.792	WT901BLE68(801231B9234C)	-0.480	1.604	-0.160	156.677	115.295	-54.993	-11.73	60.36	78.61	30.772	-38.220	13.818	0.61383	-0.36377	0.26663	0.64783	23.0	13111	100
2025-5-24 8:37:24.792	WT901BLE68(801231B9234C)	-0.223	0.776	-0.121	136.536	66.956	-28.015	-10.16	62.26	76.77	30.772	-38.220	13.818	0.61383	-0.36377	0.26663	0.64783	23.0	13111	100
2025-5-24 8:37:24.821	WT901BLE68(801231B9234C)	0.171	0.898	-0.080	111.023	6.104	-10.620	-7.88	63.08	76.14	30.772	-38.220	13.818	0.61383	-0.36377	0.26663	0.64783	23.0	13111	100
2025-5-24 8:37:24.822	WT901BLE68(801231B9234C)	0.496	0.958	-0.128	84.656	-36.743	6.348	-4.93	62.86	76.72	30.772	-38.220	13.818	0.61383	-0.36377	0.26663	0.64783	23.0	13111	100
2025-5-24 8:37:24.853	WT901BLE68(801231B9234C)	0.501	0.973	-0.109	43.396	-38.635	11.047	-2.03	62.21	77.85	30.772	-38.220	13.818	0.61383	-0.36377	0.26663	0.64783	23.0	13111	100
2025-5-24 8:37:24.854	WT901BLE68(801231B9234C)	0.282	0.859	-0.098	-35.583	-9.277	19.653	-0.04	61.84	79.35	30.772	-38.220	13.818	0.61383	-0.36377	0.26663	0.64783	23.0	13111	100
2025-5-24 8:37:24.943	WT901BLE68(801231B9234C)	0.018	0.564	-0.136	-95.825	23.987	37.720	1.05	62.02	81.56	43.610	-0.588	17.542	0.61383	-0.36377	0.26663	0.64783	23.0	13111	100
2025-5-24 8:37:24.943	WT901BLE68(801231B9234C)	-0.374	0.612	-0.221	-102.051	47.729	80.933	3.17	62.69	85.39	43.610	-0.588	17.542	0.61383	-0.36377	0.26663	0.64783	23.0	13111	100
2025-5-24 8:37:24.944	WT901BLE68(801231B9234C)	-0.817	0.967	-0.193	-147.766	8.484	110.229	6.38	62.92	90.94	43.610	-0.588	17.542	0.61383	-0.36377	0.26663	0.64783	23.0	13111	100
2025-5-24 8:37:24.944	WT901BLE68(801231B9234C)	-1.718	1.042	-0.080	-236.145	-60.608	138.489	8.48	61.62	97.01	43.610	-0.588	17.542	0.61383	-0.36377	0.26663	0.64783	23.0	13111	100
2025-5-24 8:37:24.976	WT901BLE68(801231B9234C)	-2.450	0.818	-0.042	-293.091	-49.377	161.072	9.23	59.75	103.32	43.610	-0.588	17.542	0.61383	-0.36377	0.26663	0.64783	23.0	13111	100
2025-5-24 8:37:24.976	WT901BLE68(801231B9234C)	-2.621	0.263	0.033	-265.198	23.438	247.498	11.65	58.92	111.75	43.610	-0.588	17.542	0.61383	-0.36377	0.26663	0.64783	23.0	13111	100
2025-5-24 8:37:25.93	WT901BLE68(801231B9234C)	-2.987	0.274	0.141	-198.242	77.759	232.849	16.35	58.61	121.71	43.610	-0.588	17.542	0.61383	-0.36377	0.26663	0.64783	23.0	13111	100
2025-5-24 8:37:25.93	WT901BLE68(801231B9234C)	-2.625	0.660	0.298	-173.279	198.059	144.287	20.53	60.75	130.07	43.610	-0.588	17.542	0.61383	-0.36377	0.26663	0.64783	23.0	13111	100
2025-5-24 8:37:25.94	WT901BLE68(801231B9234C)	-2.421	0.294	0.174	-169.922	197.876	148.499	25.63	63.49	139.35	43.610	-0.588	17.542	0.61383	-0.36377	0.26663	0.64783	23.0	13111	100
2025-5-24 8:37:25.94	WT901BLE68(801231B9234C)	-1.830	-0.244	0.112	-165.588	131.165	129.150	30.65	65.17	148.52	43.610	-0.588	17.542	0.61383	-0.36377	0.26663	0.64783	23.0	13111	100
2025-5-24 8:37:25.94	WT901BLE68(801231B9234C)	-1.285	-0.945	0.277	-153.320	39.978	124.023	33.83	65.26	155.54	43.610	-0.588	17.542	0.61383	-0.36377	0.26663	0.64783	23.0	13111	100
2025-5-24 8:37:25.94	WT901BLE68(801231B9234C)	-0.951	-0.509	0.040	-145.508	-25.940	99.365	34.57	64.15	159.81	43.610	-0.588	17.542	0.61383	-0.36377	0.26663	0.64783	23.0	13111	100
2025-5-24 8:37:25.152	WT901BLE68(801231B9234C)	-0.611	-0.568	0.008	-131.531	-60.730	74.951	33.31	62.70	161.66	43.610	-0.588	17.542	0.26620	-0.44400	0.31302	0.79617	23.0	13111	100
2025-5-24 8:37:25.152	WT901BLE68(801231B9234C)	-0.299	-0.638	0.014	-120.300	-73.792	77.881	31.67	61.02	162.82	43.610	-0.588	17.542	0.26620	-0.44400	0.31302	0.79617	23.0	13111	100
2025-5-24 8:37:25.243	WT901BLE68(801231B9234C)	-0.046	-0.856	0.090	-102.356	-73.303	75.745	30.07	59.28	163.86	43.610	-0.588	17.542	0.26620	-0.44400	0.31302	0.79617	23.0	13111	100
2025-5-24 8:37:25.243	WT901BLE68(801231B9234C)	0.228	-1.374	0.265	-72.937	-68.909	47.241	28.47	57.87	164.32	43.610	-0.588	17.542	0.26620	-0.44400	0.31302	0.79617	23.0	13111	100
2025-5-24 8:37:25.244	WT901BLE68(801231B9234C)	0.203	-1.825	0.048	-22.888	-67.627	9.705	26.44	56.86	163.44	43.610	-0.588	17.542	0.26620	-0.44400	0.31302	0.79617	23.0	13111	100
2025-5-24 8:37:25.244	WT901BLE68(801231B9234C)	0.033	-1.274	0.158	45.227	-69.397	-29.968	24.63	56.12	161.21	43.610	-0.588	17.542	0.26620	-0.44400	0.31302	0.79617	23.0	13111	100
2025-5-24 8:37:25.275	WT901BLE68(801231B9234C)	-0.042	-1.098	0.212	92.834	-62.500	-52.368	22.86	55.66	157.88	43.610	-0.588	17.542	0.26620	-0.44400	0.31302	0.79617	23.0	13111	100
2025-5-24 8:37:25.275	WT901BLE68(801231B9234C)	-0.326	-0.855	0.268	139.893	-72.754	-79.346	21.40	55.28	153.78	43.610	-0.588	17.542	0.26620	-0.44400	0.31302	0.79617	23.0	13111	100
2025-5-24 8:37:25.305	WT901BLE68(801231B9234C)	-0.816	-0.563	0.304	183.899	-88.745	-103.638	20.02	54.66	148.64	43.610	-0.588	17.542	0.26620	-0.44400	0.31302	0.79617	23.0	13111	100
2025-5-24 8:37:25.305	WT901BLE68(801231B9234C)	-1.470	-0.749	0.379	169.128	-69.153	-127.319	18.75	54.12	143.12	32.144	-35.476	9.310	0.26620	-0.44400	0.31302	0.79617	23.0	13111	100
2025-5-24 8:37:25.334	WT901BLE68(801231B9234C)	-2.917	-0.454	0.140	195.679	-24.170	-150.574	16.86	54.23	137.19	32.144	-35.476	9.310	0.26620	-0.44400	0.31302	0.79617	23.0	13111	100
2025-5-24 8:37:25.334	WT901BLE68(801231B9234C)	-4.033	-0.376	0.115	197.754	-23.315	-180.481	15.21	55.38	130.92	32.144	-35.476	9.310	0.26620	-0.44400	0.31302	0.79617	23.0	13111	100
2025-5-24 8:37:25.423	WT901BLE68(801231B9234C)	-3.868	-0.112	-0.253	203.918	-142.273	-144.836	13.51	54.46	124.73	32.144	-35.476	9.310	0.26620	-0.44400	0.31302	0.79617	23.0	13111	100
2025-5-24 8:37:25.423	WT901BLE68(801231B9234C)	-2.930	0.608	-0.220	192.993	-190.735	-201.294	11.27	52.09	117.71	32.144	-35.476	9.310	0.26620	-0.44400	0.31302	0.79617	23.0	13111	100
2025-5-24 8:37:25.424	WT901BLE68(801231B9234C)	-1.854	2.130	-0.261	112.610	-166.321	-160.767	8.43	49.47	110.98	32.144	-35.476	9.310	0.26620	-0.44400	0.31302	0.79617	23.0	13111	100
2025-5-24 8:37:25.424	WT901BLE68(801231B9234C)	-1.375	1.224	-0.123	74.707	-22.766	-177.917	5.97	48.89	106.34	32.144	-35.476	9.310	0.26620	-0.44400	0.31302	0.79617	23.0	13111	100
2025-5-24 8:37:25.453	WT901BLE68(801231B9234C)	-0.942	0.814	-0.125	88.928	77.515	-179.871	3.25	50.59	101.18	32.144	-35.476	9.310	0.26620	-0.44400	0.31302	0.79617	23.0	13111	100
2025-5-24 8:37:25.453	WT901BLE68(801231B9234C)	-0.644	0.922	-0.115	119.202	111.450	-131.897	1.84	53.31	97.03	32.144	-35.476	9.310	0.26620	-0.44400	0.31302	0.79617	23.0	13111	100
2025-5-24 8:37:25.513	WT901BLE68(801231B9234C)	-0.331	0.810	-0.085	117.798	107.239	-109.070	1.32	56.04	93.65	32.144	-35.476	9.310	0.26620	-0.44400	0.31302	0.79617	23.0	13111	100
2025-5-24 8:37:25.513	WT901BLE68(801231B9234C)	-0.086	0.744	-0.007	125.793	92.834	-83.191	1.48	58.47	90.76	32.144	-35.476	9.310	0.26620	-0.44400	0.31302	0.79617	23.0	13111	100
2025-5-24 8:37:25.544	WT901BLE68(801231B9234C)	0.164	0.907	0.041	118.347	46.326	-63.354	2.44	60.17	88.59	32.144	-35.476	9.310	0.62985	-0.33084	0.37143	0.59647	23.0	13111	100
2025-5-24 8:37:25.544	WT901BLE68(801231B9234C)	0.468	1.016	-0.028	113.281	-8.789	-48.462	3.75	60.68	86.91	32.144	-35.476	9.310	0.62985	-0.33084	0.37143	0.59647	23.0	13111	100
2025-5-24 8:37:25.603	WT901BLE68(801231B9234C)	0.600	0.984	-0.141	73.853	-66.162	-26.367	5.45	59.92	85.98	32.144	-35.476	9.310	0.62985	-0.33084	0.37143	0.59647	23.0	13111	100
2025-5-24 8:37:25.603	WT901BLE68(801231B9234C)	0.422	0.932	-0.120	-11.414	-75.928	-12.146	6.47	58.40	85.74	32.144	-35.476	9.310	0.62985	-0.33084	0.37143	0.59647	23.0	13111	100
2025-5-24 8:37:25.663	WT901BLE68(801231B9234C)	0.199	0.577	-0.223	-66.528	-37.903	12.573	6.64	57.21	86.32	32.144	-35.476	9.310	0.62985	-0.33084	0.37143	0.59647	23.0	13111	100
2025-5-24 8:37:25.663	WT901BLE68(801231B9234C)	-0.079	0.646	-0.161	-68.115	13.245	64.453	8.07	56.87	88.74	32.144	-35.476	9.310	0.62985	-0.33084	0.37143	0.59647	23.0	13111	100
2025-5-24 8:37:25.664	WT901BLE68(801231B9234C)	-0.553	1.021	0.023	-117.432	5.188	120.361	10.78	56.52	93.30	32.144	-35.476	9.310	0.62985	-0.33084	0.37143	0.59647	23.0	13111	100
2025-5-24 8:37:25.664	WT901BLE68(801231B9234C)	-1.869	1.092	0.015	-199.036	-10.254	155.518	12.89	55.50	98.99	32.144	-35.476	9.310	0.62985	-0.33084	0.37143	0.59647	23.0	13111	100
2025-5-24 8:37:25.752	WT901BLE68(801231B9234C)	-2.723	0.925	0.114	-266.968	7.874	161.743	13.52	54.42	104.86	32.144	-35.476	9.310	0.62985	-0.33084	0.37143	0.59647	23.0	13111	100
2025-5-24 8:37:25.753	WT901BLE68(801231B9234C)	-2.510	0.457	0.500	-218.628	9.155	249.695	15.27	53.65	112.18	43.022	-8.134	14.602	0.62985	-0.33084	0.37143	0.59647	23.0	13111	100
2025-5-24 8:37:25.813	WT901BLE68(801231B9234C)	-2.941	0.738	0.677	-180.664	17.395	221.985	18.50	52.11	120.12	43.022	-8.134	14.602	0.62985	-0.33084	0.37143	0.59647	23.0	13111	100
2025-5-24 8:37:25.813	WT901BLE68(801231B9234C)	-2.612	0.675	0.811	-171.204	109.558	163.391	20.34	52.61	126.34	43.022	-8.134	14.602	0.62985	-0.33084	0.37143	0.59647	23.0	13111	100
2025-5-24 8:37:25.814	WT901BLE68(801231B9234C)	-2.205	0.118	0.614	-137.207	82.397	168.823	22.74	53.33	132.76	43.022	-8.134	14.602	0.62985	-0.33084	0.37143	0.59647	23.0	13111	100
2025-5-24 8:37:25.814	WT901BLE68(801231B9234C)	-1.660	-0.174	0.512	-121.948	60.364	158.081	25.09	53.44	138.72	43.022	-8.134	14.602	0.62985	-0.33084	0.37143	0.59647	23.0	13111	100
2025-5-24 8:37:25.815	WT901BLE68(801231B9234C)	-1.139	-0.336	0.443	-113.892	33.081	141.052	26.88	53.14	143.92	43.022	-8.134	14.602	0.62985	-0.33084	0.37143	0.59647	23.0	13111	100
2025-5-24 8:37:25.815	WT901BLE68(801231B9234C)	-0.729	-0.400	0.307	-113.464	10.193	123.596	27.81	52.51	148.06	43.022	-8.134	14.602	0.62985	-0.33084	0.37143	0.59647	23.0	13111	100
2025-5-24 8:37:25.905	WT901BLE68(801231B9234C)	-0.486	-0.848	0.191	-137.634	4.822	121.338	27.95	51.72	151.77	43.022	-8.134	14.602	0.62985	-0.33084	0.37143	0.59647	23.0	13111	100
2025-5-24 8:37:25.905	WT901BLE68(801231B9234C)	-0.267	-1.196	0.260	-109.253	8.057	118.530	28.14	50.99	155.26	43.022	-8.134	14.602	0.62985	-0.33084	0.37143	0.59647	23.0	13111	100
2025-5-24 8:37:25.906	WT901BLE68(801231B9234C)	-0.006	-0.992	0.234	-73.792	-14.282	105.713	28.32	50.20	158.15	43.022	-8.134	14.602	0.62985	-0.33084	0.37143	0.59647	23.0	13111	100
2025-5-24 8:37:25.906	WT901BLE68(801231B9234C)	0.086	-1.263	0.372	-36.499	-36.987	76.416	28.34	49.13	159.96	43.022	-8.134	14.602	0.25247	-0.35156	0.29156	0.85297	23.0	13111	100
2025-5-24 8:37:25.962	WT901BLE68(801231B9234C)	-0.094	-1.341	0.399	-10.986	-34.729	24.109	27.63	48.39	160.16	43.022	-8.134	14.602	0.25247	-0.35156	0.29156	0.85297	23.0	13111	100
2025-5-24 8:37:25.962	WT901BLE68(801231B9234C)	-0.414	-1.337	0.359	17.517	-12.695	-33.020	26.40	48.41	159.02	43.022	-8.134	14.602	0.25247	-0.35156	0.29156	0.85297	23.0	13111	100
2025-5-24 8:37:25.992	WT901BLE68(801231B9234C)	-0.715	-1.156	0.321	54.016	-0.549	-91.431	24.80	49.24	156.46	43.022	-8.134	14.602	0.25247	-0.35156	0.29156	0.85297	23.0	13111	100
2025-5-24 8:37:25.992	WT901BLE68(801231B9234C)	-1.128	-0.824	0.188	88.013	-30.701	-151.062	22.20	50.23	151.88	43.022	-8.134	14.602	0.25247	-0.35156	0.29156	0.85297	23.0	13111	100
2025-5-24 8:37:26.21	WT901BLE68(801231B9234C)	-1.997	-0.645	0.185	133.911	-67.139	-202.332	19.05	50.73	145.34	43.022	-8.134	14.602	0.25247	-0.35156	0.29156	0.85297	23.0	13111	100
2025-5-24 8:37:26.21	WT901BLE68(801231B9234C)	-3.027	-0.461	0.411	127.502	-98.694	-236.816	14.96	50.61	137.34	43.022	-8.134	14.602	0.25247	-0.35156	0.29156	0.85297	23.0	13111	100
2025-5-24 8:37:26.85	WT901BLE68(801231B9234C)	-3.390	-0.425	0.561	121.399	-195.496	-225.159	10.51	49.00	128.99	43.022	-8.134	14.602	0.25247	-0.35156	0.29156	0.85297	23.0	13111	100
2025-5-24 8:37:26.85	WT901BLE68(801231B9234C)	-3.495	-0.062	0.574	123.840	-281.372	-226.685	6.97	44.93	121.48	43.022	-8.134	14.602	0.25247	-0.35156	0.29156	0.85297	23.0	13111	100
2025-5-24 8:37:26.114	WT901BLE68(801231B9234C)	-2.452	0.718	0.508	49.622	-314.331	-275.696	2.97	39.68	113.88	43.022	-8.134	14.602	0.25247	-0.35156	0.29156	0.85297	23.0	13111	100
2025-5-24 8:37:26.114	WT901BLE68(801231B9234C)	-1.550	1.247	0.508	43.579	-265.747	-244.080	-0.73	34.34	107.30	39.396	-23.716	2.646	0.25247	-0.35156	0.29156	0.85297	23.0	13111	100
2025-5-24 8:37:26.144	WT901BLE68(801231B9234C)	-1.315	1.954	0.364	58.838	-48.157	-184.631	-2.10	32.01	103.18	39.396	-23.716	2.646	0.25247	-0.35156	0.29156	0.85297	23.0	13111	100
2025-5-24 8:37:26.144	WT901BLE68(801231B9234C)	-1.032	0.983	0.351	54.077	112.976	-209.473	-4.03	33.65	98.61	39.396	-23.716	2.646	0.25247	-0.35156	0.29156	0.85297	23.0	13111	100
2025-5-24 8:37:26.203	WT901BLE68(801231B9234C)	-0.536	0.961	0.081	112.000	159.851	-152.283	-4.61	36.86	94.63	39.396	-23.716	2.646	0.25247	-0.35156	0.29156	0.85297	23.0	13111	100
2025-5-24 8:37:26.203	WT901BLE68(801231B9234C)	-0.195	0.918	0.001	124.756	199.829	-126.404	-4.19	40.83	91.15	39.396	-23.716	2.646	0.25247	-0.35156	0.29156	0.85297	23.0	13111	100
2025-5-24 8:37:26.231	WT901BLE68(801231B9234C)	-0.077	0.809	-0.017	124.084	246.704	-102.661	-3.48	45.63	87.84	39.396	-23.716	2.646	0.25247	-0.35156	0.29156	0.85297	23.0	13111	100
2025-5-24 8:37:26.232	WT901BLE68(801231B9234C)	-0.133	0.821	-0.057	122.253	231.873	-74.463	-2.46	50.69	85.07	39.396	-23.716	2.646	0.25247	-0.35156	0.29156	0.85297	23.0	13111	100
2025-5-24 8:37:26.261	WT901BLE68(801231B9234C)	-0.039	0.962	-0.057	107.727	132.141	-59.387	-1.12	54.27	83.06	39.396	-23.716	2.646	0.25247	-0.35156	0.29156	0.85297	23.0	13111	100
2025-5-24 8:37:26.261	WT901BLE68(801231B9234C)	0.362	1.204	-0.091	77.637	15.808	-29.297	0.42	55.49	81.93	39.396	-23.716	2.646	0.25247	-0.35156	0.29156	0.85297	23.0	13111	100
2025-5-24 8:37:26.323	WT901BLE68(801231B9234C)	0.490	0.879	-0.056	26.733	-36.011	0.977	2.15	55.05	82.08	39.396	-23.716	2.646	0.25247	-0.35156	0.29156	0.85297	23.0	13111	100
2025-5-24 8:37:26.323	WT901BLE68(801231B9234C)	0.365	0.643	-0.083	-24.658	-18.311	28.381	3.63	54.40	83.17	39.396	-23.716	2.646	0.25247	-0.35156	0.29156	0.85297	23.0	13111	100
2025-5-24 8:37:26.351	WT901BLE68(801231B9234C)	0.091	0.648	-0.087	-58.716	24.780	76.721	5.58	54.32	85.85	39.396	-23.716	2.646	0.66486	-0.27231	0.36438	0.59241	23.0	13111	100
2025-5-24 8:37:26.351	WT901BLE68(801231B9234C)	-0.346	0.886	-0.005	-95.581	43.945	139.832	8.67	54.57	90.72	39.396	-23.716	2.646	0.66486	-0.27231	0.36438	0.59241	23.0	13111	100
2025-5-24 8:37:26.381	WT901BLE68(801231B9234C)	-1.281	1.017	0.050	-173.218	32.593	168.701	11.66	54.40	97.02	39.396	-23.716	2.646	0.66486	-0.27231	0.36438	0.59241	23.0	13111	100
2025-5-24 8:37:26.381	WT901BLE68(801231B9234C)	-3.006	0.936	0.060	-263.184	20.325	169.922	12.96	53.79	103.42	39.396	-23.716	2.646	0.66486	-0.27231	0.36438	0.59241	23.0	13111	100
2025-5-24 8:37:26.503	WT901BLE68(801231B9234C)	-2.600	0.432	0.215	-284.241	25.696	222.290	13.19	53.20	110.01	39.396	-23.716	2.646	0.66486	-0.27231	0.36438	0.59241	23.0	13111	100
2025-5-24 8:37:26.504	WT901BLE68(801231B9234C)	-3.090	0.285	0.431	-211.365	-11.353	290.222	16.23	51.72	118.89	39.396	-23.716	2.646	0.66486	-0.27231	0.36438	0.59241	23.0	13111	100
2025-5-24 8:37:26.504	WT901BLE68(801231B9234C)	-3.093	0.480	0.790	-199.768	124.634	163.147	18.25	51.92	126.02	39.396	-23.716	2.646	0.66486	-0.27231	0.36438	0.59241	23.0	13111	100
2025-5-24 8:37:26.505	WT901BLE68(801231B9234C)	-2.471	0.157	0.744	-166.687	124.390	147.034	19.74	53.80	132.17	39.396	-23.716	2.646	0.66486	-0.27231	0.36438	0.59241	23.0	13111	100
2025-5-24 8:37:26.505	WT901BLE68(801231B9234C)	-1.653	-0.153	0.567	-135.925	78.735	117.615	21.28	54.87	137.57	39.396	-23.716	2.646	0.66486	-0.27231	0.36438	0.59241	23.0	13111	100
2025-5-24 8:37:26.505	WT901BLE68(801231B9234C)	-1.018	-0.396	0.427	-115.540	42.297	87.708	22.08	55.40	141.64	39.396	-23.716	2.646	0.66486	-0.27231	0.36438	0.59241	23.0	13111	100
2025-5-24 8:37:26.563	WT901BLE68(801231B9234C)	-0.626	-0.485	0.249	-95.337	17.700	61.829	22.17	55.57	144.37	38.220	-25.970	12.642	0.66486	-0.27231	0.36438	0.59241	23.0	13111	100
2025-5-24 8:37:26.563	WT901BLE68(801231B9234C)	-0.481	-0.912	0.125	-86.670	21.790	45.837	21.56	55.79	146.55	38.220	-25.970	12.642	0.66486	-0.27231	0.36438	0.59241	23.0	13111	100
2025-5-24 8:37:26.592	WT901BLE68(801231B9234C)	-0.406	-1.238	0.190	-82.825	41.077	49.683	21.39	56.38	148.79	38.220	-25.970	12.642	0.66486	-0.27231	0.36438	0.59241	23.0	13111	100
2025-5-24 8:37:26.592	WT901BLE68(801231B9234C)	-0.229	-0.898	0.233	-50.354	3.662	38.208	21.30	56.71	150.46	38.220	-25.970	12.642	0.66486	-0.27231	0.36438	0.59241	23.0	13111	100
2025-5-24 8:37:26.624	WT901BLE68(801231B9234C)	0.106	-0.904	0.263	-36.926	-56.885	24.658	20.47	56.11	150.80	38.220	-25.970	12.642	0.66486	-0.27231	0.36438	0.59241	23.0	13111	100
2025-5-24 8:37:26.624	WT901BLE68(801231B9234C)	0.285	-1.016	0.239	-24.414	-85.388	-7.568	18.56	54.82	149.66	38.220	-25.970	12.642	0.66486	-0.27231	0.36438	0.59241	23.0	13111	100
2025-5-24 8:37:26.685	WT901BLE68(801231B9234C)	0.115	-1.129	0.143	3.418	-55.786	-44.495	16.03	53.92	147.34	38.220	-25.970	12.642	0.66486	-0.27231	0.36438	0.59241	23.0	13111	100
2025-5-24 8:37:26.685	WT901BLE68(801231B9234C)	-0.068	-0.937	0.082	36.743	-14.954	-81.970	13.55	53.89	144.21	38.220	-25.970	12.642	0.66486	-0.27231	0.36438	0.59241	23.0	13111	100
2025-5-24 8:37:26.714	WT901BLE68(801231B9234C)	-0.320	-0.759	0.034	80.017	-13.855	-113.403	10.85	54.24	139.96	38.220	-25.970	12.642	0.66486	-0.27231	0.36438	0.59241	23.0	13111	100
2025-5-24 8:37:26.714	WT901BLE68(801231B9234C)	-0.822	-0.672	0.094	124.573	-26.794	-152.039	7.94	54.35	134.40	38.220	-25.970	12.642	0.39307	-0.38849	0.23648	0.79910	23.0	13111	100
2025-5-24 8:37:26.744	WT901BLE68(801231B9234C)	-2.462	-0.701	0.121	155.151	-17.273	-178.650	5.02	54.38	127.80	38.220	-25.970	12.642	0.39307	-0.38849	0.23648	0.79910	23.0	13111	100
2025-5-24 8:37:26.744	WT901BLE68(801231B9234C)	-3.529	-0.928	0.515	155.334	16.663	-186.218	1.95	54.62	120.89	38.220	-25.970	12.642	0.39307	-0.38849	0.23648	0.79910	23.0	13111	100
2025-5-24 8:37:26.803	WT901BLE68(801231B9234C)	-3.549	-0.731	0.488	159.363	-159.729	-142.578	-0.36	53.55	115.02	38.220	-25.970	12.642	0.39307	-0.38849	0.23648	0.79910	23.0	13111	100
2025-5-24 8:37:26.803	WT901BLE68(801231B9234C)	-2.932	0.045	0.252	191.650	-256.592	-140.808	-0.53	48.94	110.74	38.220	-25.970	12.642	0.39307	-0.38849	0.23648	0.79910	23.0	13111	100
2025-5-24 8:37:26.923	WT901BLE68(801231B9234C)	-1.640	0.984	0.125	165.344	-209.717	-154.114	-0.74	44.53	106.34	38.220	-25.970	12.642	0.39307	-0.38849	0.23648	0.79910	23.0	13111	100
2025-5-24 8:37:26.923	WT901BLE68(801231B9234C)	-1.352	1.510	0.135	195.679	-37.109	-93.506	0.27	42.67	103.39	38.220	-25.970	12.642	0.39307	-0.38849	0.23648	0.79910	23.0	13111	100
2025-5-24 8:37:26.951	WT901BLE68(801231B9234C)	-1.488	1.451	0.021	138.000	154.663	-155.090	1.64	45.04	100.67	38.220	-25.970	12.642	0.39307	-0.38849	0.23648	0.79910	23.0	13111	100
2025-5-24 8:37:26.952	WT901BLE68(801231B9234C)	-1.026	0.329	0.206	146.179	194.946	-142.212	0.65	49.52	96.47	38.220	-25.970	12.642	0.39307	-0.38849	0.23648	0.79910	23.0	13111	100
2025-5-24 8:37:26.952	WT901BLE68(801231B9234C)	-0.638	0.416	0.034	195.923	125.000	-84.534	2.02	52.97	93.76	38.220	-25.970	12.642	0.39307	-0.38849	0.23648	0.79910	23.0	13111	100
2025-5-24 8:37:26.953	WT901BLE68(801231B9234C)	-0.345	0.495	-0.051	181.946	67.688	-61.096	4.19	55.20	91.99	38.220	-25.970	12.642	0.39307	-0.38849	0.23648	0.79910	23.0	13111	100
2025-5-24 8:37:26.953	WT901BLE68(801231B9234C)	-0.024	0.630	-0.079	175.110	13.489	-43.762	6.65	56.31	90.70	38.220	-25.970	12.642	0.39307	-0.38849	0.23648	0.79910	23.0	13111	100
2025-5-24 8:37:26.954	WT901BLE68(801231B9234C)	0.257	0.670	-0.188	133.118	-43.945	-32.593	9.18	56.28	89.58	42.826	-8.722	13.720	0.39307	-0.38849	0.23648	0.79910	23.0	13111	100
2025-5-24 8:37:26.981	WT901BLE68(801231B9234C)	0.728	2.075	-0.194	107.300	-74.524	-37.109	11.04	55.31	88.22	42.826	-8.722	13.720	0.39307	-0.38849	0.23648	0.79910	23.0	13111	100
2025-5-24 8:37:26.981	WT901BLE68(801231B9234C)	0.625	1.059	-0.211	33.997	-50.232	-22.644	12.00	54.22	87.18	42.826	-8.722	13.720	0.39307	-0.38849	0.23648	0.79910	23.0	13111	100
2025-5-24 8:37:27.42	WT901BLE68(801231B9234C)	0.355	0.852	-0.285	-34.180	3.052	-10.803	12.42	53.89	87.08	42.826	-8.722	13.720	0.39307	-0.38849	0.23648	0.79910	23.0	13111	100
2025-5-24 8:37:27.42	WT901BLE68(801231B9234C)	0.012	0.896	-0.403	-81.299	33.630	33.752	13.05	54.13	88.48	42.826	-8.722	13.720	0.39307	-0.38849	0.23648	0.79910	23.0	13111	100
2025-5-24 8:37:27.74	WT901BLE68(801231B9234C)	-0.449	1.147	-0.177	-155.090	29.053	105.225	14.23	54.12	92.09	42.826	-8.722	13.720	0.39307	-0.38849	0.23648	0.79910	23.0	13111	100
2025-5-24 8:37:27.74	WT901BLE68(801231B9234C)	-1.958	1.186	-0.026	-240.540	36.926	155.945	15.31	53.67	97.62	42.826	-8.722	13.720	0.39307	-0.38849	0.23648	0.79910	23.0	13111	100
2025-5-24 8:37:27.104	WT901BLE68(801231B9234C)	-3.375	1.123	-0.048	-328.674	94.788	148.682	15.13	53.90	103.82	42.826	-8.722	13.720	0.39307	-0.38849	0.23648	0.79910	23.0	13111	100
2025-5-24 8:37:27.104	WT901BLE68(801231B9234C)	-3.035	0.529	0.590	-251.953	94.543	263.000	16.84	54.87	112.30	42.826	-8.722	13.720	0.39307	-0.38849	0.23648	0.79910	23.0	13111	100
2025-5-24 8:37:27.163	WT901BLE68(801231B9234C)	-2.966	0.997	0.753	-175.171	79.407	191.284	20.60	54.36	120.85	42.826	-8.722	13.720	0.48798	-0.31552	0.36224	0.72870	23.0	13111	100
2025-5-24 8:37:27.163	WT901BLE68(801231B9234C)	-2.208	0.688	0.665	-141.907	166.870	113.770	22.89	56.07	126.91	42.826	-8.722	13.720	0.48798	-0.31552	0.36224	0.72870	23.0	13111	100
2025-5-24 8:37:27.192	WT901BLE68(801231B9234C)	-1.807	0.056	0.460	-104.248	146.423	113.037	26.32	58.15	133.36	42.826	-8.722	13.720	0.48798	-0.31552	0.36224	0.72870	23.0	13111	100
2025-5-24 8:37:27.192	WT901BLE68(801231B9234C)	-1.525	-0.306	0.291	-92.651	83.679	109.131	29.45	59.16	139.13	42.826	-8.722	13.720	0.48798	-0.31552	0.36224	0.72870	23.0	13111	100
2025-5-24 8:37:27.222	WT901BLE68(801231B9234C)	-1.224	-0.473	0.208	-89.233	14.465	106.934	31.54	58.93	143.71	42.826	-8.722	13.720	0.48798	-0.31552	0.36224	0.72870	23.0	13111	100
2025-5-24 8:37:27.222	WT901BLE68(801231B9234C)	-0.828	-0.847	0.177	-103.577	-56.946	94.055	31.83	57.58	146.52	42.826	-8.722	13.720	0.48798	-0.31552	0.36224	0.72870	23.0	13111	100
2025-5-24 8:37:27.284	WT901BLE68(801231B9234C)	-0.443	-1.004	0.160	-104.065	-73.303	91.858	31.06	55.63	148.23	42.826	-8.722	13.720	0.48798	-0.31552	0.36224	0.72870	23.0	13111	100
2025-5-24 8:37:27.284	WT901BLE68(801231B9234C)	-0.246	-0.780	0.086	-102.295	-52.246	83.923	30.11	53.98	149.81	42.826	-8.722	13.720	0.48798	-0.31552	0.36224	0.72870	23.0	13111	100
2025-5-24 8:37:27.343	WT901BLE68(801231B9234C)	-0.105	-1.021	0.183	-80.139	-25.696	68.542	29.41	52.94	151.48	42.826	-8.722	13.720	0.48798	-0.31552	0.36224	0.72870	23.0	13111	100
2025-5-24 8:37:27.343	WT901BLE68(801231B9234C)	0.071	-1.300	0.215	-52.002	-38.879	28.442	28.13	52.33	152.06	42.826	-8.722	13.720	0.48798	-0.31552	0.36224	0.72870	23.0	13111	100
2025-5-24 8:37:27.373	WT901BLE68(801231B9234C)	0.068	-1.408	0.217	-11.353	-55.176	-18.494	26.21	51.81	150.90	33.222	-33.418	13.132	0.48798	-0.31552	0.36224	0.72870	23.0	13111	100
2025-5-24 8:37:27.373	WT901BLE68(801231B9234C)	-0.042	-1.104	0.144	5.615	-40.222	-55.542	23.68	51.65	148.40	33.222	-33.418	13.132	0.48798	-0.31552	0.36224	0.72870	23.0	13111	100
2025-5-24 8:37:27.404	WT901BLE68(801231B9234C)	-0.301	-0.918	0.143	39.856	-7.446	-97.412	21.05	52.19	145.10	33.222	-33.418	13.132	0.48798	-0.31552	0.36224	0.72870	23.0	13111	100
2025-5-24 8:37:27.404	WT901BLE68(801231B9234C)	-0.714	-0.758	0.186	81.543	3.418	-141.663	18.11	53.32	140.46	33.222	-33.418	13.132	0.48798	-0.31552	0.36224	0.72870	23.0	13111	100
2025-5-24 8:37:27.433	WT901BLE68(801231B9234C)	-1.931	-0.696	0.139	135.254	0.793	-164.551	15.05	54.43	134.64	33.222	-33.418	13.132	0.48798	-0.31552	0.36224	0.72870	23.0	13111	100
2025-5-24 8:37:27.434	WT901BLE68(801231B9234C)	-3.274	-0.774	0.391	145.691	2.930	-191.589	11.84	55.48	127.91	33.222	-33.418	13.132	0.48798	-0.31552	0.36224	0.72870	23.0	13111	100
2025-5-24 8:37:27.494	WT901BLE68(801231B9234C)	-3.799	-0.616	0.592	126.160	-116.577	-189.880	7.64	55.43	120.35	33.222	-33.418	13.132	0.48798	-0.31552	0.36224	0.72870	23.0	13111	100
2025-5-24 8:37:27.494	WT901BLE68(801231B9234C)	-3.900	0.047	0.396	149.475	-256.287	-186.340	4.42	51.68	113.54	33.222	-33.418	13.132	0.48798	-0.31552	0.36224	0.72870	23.0	13111	100
2025-5-24 8:37:27.524	WT901BLE68(801231B9234C)	-2.488	0.805	0.443	90.881	-292.480	-243.713	0.95	46.66	106.40	33.222	-33.418	13.132	0.48798	-0.31552	0.36224	0.72870	23.0	13111	100
2025-5-24 8:37:27.524	WT901BLE68(801231B9234C)	-1.180	1.338	0.281	89.355	-257.202	-190.247	-2.08	41.21	100.50	33.222	-33.418	13.132	0.61325	-0.25998	0.21039	0.71552	23.0	13111	100
2025-5-24 8:37:27.554	WT901BLE68(801231B9234C)	-1.161	2.101	0.160	113.525	28.992	-131.287	-1.84	39.87	97.58	33.222	-33.418	13.132	0.61325	-0.25998	0.21039	0.71552	23.0	13111	100
2025-5-24 8:37:27.555	WT901BLE68(801231B9234C)	-1.118	0.796	0.261	66.040	203.674	-201.355	-3.98	43.25	92.66	33.222	-33.418	13.132	0.61325	-0.25998	0.21039	0.71552	23.0	13111	100
2025-5-24 8:37:27.612	WT901BLE68(801231B9234C)	-0.683	0.735	0.083	137.695	223.450	-127.197	-4.86	47.92	88.23	33.222	-33.418	13.132	0.61325	-0.25998	0.21039	0.71552	23.0	13111	100
2025-5-24 8:37:27.613	WT901BLE68(801231B9234C)	-0.441	0.796	0.096	134.705	194.885	-86.487	-4.43	52.29	84.95	33.222	-33.418	13.132	0.61325	-0.25998	0.21039	0.71552	23.0	13111	100
2025-5-24 8:37:27.641	WT901BLE68(801231B9234C)	-0.230	0.805	0.104	122.864	123.535	-51.270	-3.36	55.60	82.77	33.222	-33.418	13.132	0.61325	-0.25998	0.21039	0.71552	23.0	13111	100
2025-5-24 8:37:27.641	WT901BLE68(801231B9234C)	0.197	0.893	0.071	107.544	14.038	-23.438	-1.50	56.91	81.80	33.222	-33.418	13.132	0.61325	-0.25998	0.21039	0.71552	23.0	13111	100
2025-5-24 8:37:27.674	WT901BLE68(801231B9234C)	0.658	0.950	-0.031	95.215	-62.561	-2.014	0.96	56.31	81.80	33.222	-33.418	13.132	0.61325	-0.25998	0.21039	0.71552	23.0	13111	100
2025-5-24 8:37:27.674	WT901BLE68(801231B9234C)	0.784	0.862	-0.119	51.636	-67.627	14.099	3.31	54.96	82.41	33.222	-33.418	13.132	0.61325	-0.25998	0.21039	0.71552	23.0	13111	100
2025-5-24 8:37:27.732	WT901BLE68(801231B9234C)	0.581	0.654	-0.099	-12.390	-28.076	33.752	5.19	54.03	83.67	33.222	-33.418	13.132	0.61325	-0.25998	0.21039	0.71552	23.0	13111	100
2025-5-24 8:37:27.732	WT901BLE68(801231B9234C)	0.210	0.521	-0.122	-42.175	23.499	70.679	7.16	53.84	86.16	33.222	-33.418	13.132	0.61325	-0.25998	0.21039	0.71552	23.0	13111	100
2025-5-24 8:37:27.764	WT901BLE68(801231B9234C)	-0.125	0.821	-0.173	-63.171	56.152	131.653	10.55	54.23	90.80	44.492	-3.038	14.798	0.61325	-0.25998	0.21039	0.71552	23.0	13111	100
2025-5-24 8:37:27.765	WT901BLE68(801231B9234C)	-0.686	1.099	-0.051	-131.592	12.634	190.186	14.47	53.76	97.37	44.492	-3.038	14.798	0.61325	-0.25998	0.21039	0.71552	23.0	13111	100
2025-5-24 8:37:27.942	WT901BLE68(801231B9234C)	-2.384	1.203	0.130	-218.628	-4.395	191.345	16.97	52.26	104.17	44.492	-3.038	14.798	0.61325	-0.25998	0.21039	0.71552	23.0	13111	100
2025-5-24 8:37:27.942	WT901BLE68(801231B9234C)	-2.938	1.006	0.344	-292.175	1.160	175.659	16.56	50.95	109.80	44.492	-3.038	14.798	0.61325	-0.25998	0.21039	0.71552	23.0	13111	100
2025-5-24 8:37:27.943	WT901BLE68(801231B9234C)	-2.432	0.675	0.460	-192.078	-27.466	307.739	18.39	49.06	117.34	44.492	-3.038	14.798	0.61325	-0.25998	0.21039	0.71552	23.0	13111	100
2025-5-24 8:37:27.943	WT901BLE68(801231B9234C)	-3.008	0.821	0.655	-161.926	75.623	220.276	21.34	47.44	125.19	44.492	-3.038	14.798	0.61325	-0.25998	0.21039	0.71552	23.0	13111	100
2025-5-24 8:37:28.3	WT901BLE68(801231B9234C)	-2.371	0.708	0.667	-141.785	223.572	149.231	23.55	49.74	131.70	44.492	-3.038	14.798	0.61325	-0.25998	0.21039	0.71552	23.0	13111	100
2025-5-24 8:37:28.4	WT901BLE68(801231B9234C)	-2.049	0.163	0.444	-97.168	200.439	149.048	27.40	52.41	139.09	44.492	-3.038	14.798	0.61325	-0.25998	0.21039	0.71552	23.0	13111	100
2025-5-24 8:37:28.5	WT901BLE68(801231B9234C)	-1.656	-0.243	0.351	-94.055	145.569	129.944	31.01	54.23	145.91	44.492	-3.038	14.798	0.61325	-0.25998	0.21039	0.71552	23.0	13111	100
2025-5-24 8:37:28.5	WT901BLE68(801231B9234C)	-1.254	-0.399	0.317	-75.256	58.533	117.981	33.71	54.64	151.29	44.492	-3.038	14.798	0.61325	-0.25998	0.21039	0.71552	23.0	13111	100
2025-5-24 8:37:28.5	WT901BLE68(801231B9234C)	-0.902	-0.421	0.284	-66.345	-8.240	93.689	34.81	53.95	154.54	44.492	-3.038	14.798	0.61325	-0.25998	0.21039	0.71552	23.0	13111	100
2025-5-24 8:37:28.5	WT901BLE68(801231B9234C)	-0.579	-0.909	0.285	-82.214	-26.062	89.966	34.66	52.87	156.63	44.492	-3.038	14.798	0.61325	-0.25998	0.21039	0.71552	23.0	13111	100
2025-5-24 8:37:28.6	WT901BLE68(801231B9234C)	-0.392	-0.871	0.271	-75.684	-15.808	73.669	34.37	51.97	158.39	44.492	-3.038	14.798	0.28537	-0.35593	0.34073	0.82199	23.0	13111	100
2025-5-24 8:37:28.6	WT901BLE68(801231B9234C)	-0.203	-0.959	0.272	-53.467	-15.869	57.861	33.87	51.33	159.77	44.492	-3.038	14.798	0.28537	-0.35593	0.34073	0.82199	23.0	13111	100
2025-5-24 8:37:28.33	WT901BLE68(801231B9234C)	0.062	-1.116	0.343	-30.334	-48.340	21.240	32.87	50.72	159.97	44.492	-3.038	14.798	0.28537	-0.35593	0.34073	0.82199	23.0	13111	100
2025-5-24 8:37:28.34	WT901BLE68(801231B9234C)	0.143	-1.161	0.336	-6.165	-74.158	-23.865	30.91	50.03	158.36	44.492	-3.038	14.798	0.28537	-0.35593	0.34073	0.82199	23.0	13111	100
2025-5-24 8:37:28.90	WT901BLE68(801231B9234C)	-0.050	-1.008	0.293	13.611	-57.739	-67.139	28.37	49.69	155.45	44.492	-3.038	14.798	0.28537	-0.35593	0.34073	0.82199	23.0	13111	100
2025-5-24 8:37:28.90	WT901BLE68(801231B9234C)	-0.277	-0.785	0.269	36.621	-6.104	-106.750	25.76	50.39	151.98	44.492	-3.038	14.798	0.28537	-0.35593	0.34073	0.82199	23.0	13111	100
2025-5-24 8:37:28.122	WT901BLE68(801231B9234C)	-0.606	-0.647	0.296	83.130	2.319	-138.550	23.19	51.72	147.69	44.492	-3.038	14.798	0.28537	-0.35593	0.34073	0.82199	23.0	13111	100
2025-5-24 8:37:28.122	WT901BLE68(801231B9234C)	-1.017	-0.538	0.335	110.657	-13.794	-169.556	20.36	52.97	142.15	44.492	-3.038	14.798	0.28537	-0.35593	0.34073	0.82199	23.0	13111	100
2025-5-24 8:37:28.151	WT901BLE68(801231B9234C)	-2.381	-0.549	0.289	116.150	-29.114	-175.537	17.07	53.79	135.79	44.492	-3.038	14.798	0.28537	-0.35593	0.34073	0.82199	23.0	13111	100
2025-5-24 8:37:28.151	WT901BLE68(801231B9234C)	-3.485	-0.693	0.636	114.563	-50.110	-201.355	13.19	54.07	128.77	35.476	-34.300	14.210	0.28537	-0.35593	0.34073	0.82199	23.0	13111	100
2025-5-24 8:37:28.244	WT901BLE68(801231B9234C)	-3.902	-0.392	0.571	128.540	-186.523	-180.481	9.27	52.61	121.46	35.476	-34.300	14.210	0.28537	-0.35593	0.34073	0.82199	23.0	13111	100
2025-5-24 8:37:28.244	WT901BLE68(801231B9234C)	-3.297	0.439	0.504	118.713	-294.739	-207.764	6.14	48.19	114.51	35.476	-34.300	14.210	0.28537	-0.35593	0.34073	0.82199	23.0	13111	100
2025-5-24 8:37:28.245	WT901BLE68(801231B9234C)	-1.584	1.066	0.412	43.091	-330.017	-231.995	1.92	42.44	107.45	35.476	-34.300	14.210	0.28537	-0.35593	0.34073	0.82199	23.0	13111	100
2025-5-24 8:37:28.245	WT901BLE68(801231B9234C)	-1.107	2.255	0.267	126.038	-135.315	-87.952	1.10	38.38	103.89	35.476	-34.300	14.210	0.28537	-0.35593	0.34073	0.82199	23.0	13111	100
2025-5-24 8:37:28.304	WT901BLE68(801231B9234C)	-1.196	1.042	0.350	34.119	114.441	-198.059	-0.08	39.60	100.32	35.476	-34.300	14.210	0.28537	-0.35593	0.34073	0.82199	23.0	13111	100
2025-5-24 8:37:28.304	WT901BLE68(801231B9234C)	-0.836	0.643	0.117	122.437	202.698	-151.428	-1.33	43.66	95.96	35.476	-34.300	14.210	0.28537	-0.35593	0.34073	0.82199	23.0	13111	100
2025-5-24 8:37:28.334	WT901BLE68(801231B9234C)	-0.560	0.879	0.011	140.564	205.505	-119.446	-0.99	48.18	92.49	35.476	-34.300	14.210	0.28537	-0.35593	0.34073	0.82199	23.0	13111	100
2025-5-24 8:37:28.335	WT901BLE68(801231B9234C)	-0.462	0.813	0.016	127.258	169.189	-85.510	-0.30	52.22	89.68	35.476	-34.300	14.210	0.28537	-0.35593	0.34073	0.82199	23.0	13111	100
2025-5-24 8:37:28.364	WT901BLE68(801231B9234C)	-0.161	0.848	0.036	115.479	73.669	-55.054	0.99	54.78	87.84	35.476	-34.300	14.210	0.64526	-0.30756	0.33643	0.61298	23.0	13111	100
2025-5-24 8:37:28.364	WT901BLE68(801231B9234C)	0.361	0.958	-0.006	108.582	-25.757	-35.583	2.70	55.17	86.69	35.476	-34.300	14.210	0.64526	-0.30756	0.33643	0.61298	23.0	13111	100
2025-5-24 8:37:28.394	WT901BLE68(801231B9234C)	0.682	0.837	-0.145	71.289	-67.444	-22.522	4.38	54.19	85.99	35.476	-34.300	14.210	0.64526	-0.30756	0.33643	0.61298	23.0	13111	100
2025-5-24 8:37:28.394	WT901BLE68(801231B9234C)	0.595	0.845	-0.161	30.518	-31.311	-7.141	5.82	53.29	85.79	35.476	-34.300	14.210	0.64526	-0.30756	0.33643	0.61298	23.0	13111	100
2025-5-24 8:37:28.452	WT901BLE68(801231B9234C)	0.275	0.588	-0.145	-28.076	22.583	11.414	6.93	53.28	86.52	35.476	-34.300	14.210	0.64526	-0.30756	0.33643	0.61298	23.0	13111	100
2025-5-24 8:37:28.452	WT901BLE68(801231B9234C)	-0.014	0.469	-0.234	-45.776	52.124	62.622	8.65	53.89	88.78	35.476	-34.300	14.210	0.64526	-0.30756	0.33643	0.61298	23.0	13111	100
2025-5-24 8:37:28.481	WT901BLE68(801231B9234C)	-0.286	0.703	-0.156	-77.209	32.471	127.014	11.73	54.14	93.21	35.476	-34.300	14.210	0.64526	-0.30756	0.33643	0.61298	23.0	13111	100
2025-5-24 8:37:28.481	WT901BLE68(801231B9234C)	-1.104	0.885	0.124	-153.015	-0.122	171.692	14.71	53.30	99.04	35.476	-34.300	14.210	0.64526	-0.30756	0.33643	0.61298	23.0	13111	100
2025-5-24 8:37:28.514	WT901BLE68(801231B9234C)	-2.568	0.960	0.418	-228.760	52.551	175.903	16.44	52.49	105.39	35.476	-34.300	14.210	0.64526	-0.30756	0.33643	0.61298	23.0	13111	100
2025-5-24 8:37:28.514	WT901BLE68(801231B9234C)	-2.752	0.727	0.369	-240.784	89.417	207.031	17.75	52.89	112.34	35.476	-34.300	14.210	0.64526	-0.30756	0.33643	0.61298	23.0	13111	100
2025-5-24 8:37:28.574	WT901BLE68(801231B9234C)	-2.779	0.708	0.632	-192.810	-5.188	235.229	20.23	51.77	120.01	46.256	-10.976	17.150	0.64526	-0.30756	0.33643	0.61298	23.0	13111	100
2025-5-24 8:37:28.574	WT901BLE68(801231B9234C)	-2.525	0.768	0.849	-164.795	88.867	156.250	21.90	51.33	125.99	46.256	-10.976	17.150	0.64526	-0.30756	0.33643	0.61298	23.0	13111	100
2025-5-24 8:37:28.604	WT901BLE68(801231B9234C)	-2.169	0.327	0.694	-120.728	124.329	133.911	23.84	52.56	131.63	46.256	-10.976	17.150	0.64526	-0.30756	0.33643	0.61298	23.0	13111	100
2025-5-24 8:37:28.604	WT901BLE68(801231B9234C)	-1.748	0.016	0.530	-101.746	115.601	126.160	26.43	53.79	137.28	46.256	-10.976	17.150	0.64526	-0.30756	0.33643	0.61298	23.0	13111	100
2025-5-24 8:37:28.634	WT901BLE68(801231B9234C)	-1.431	-0.198	0.425	-93.018	80.139	117.615	28.78	54.53	142.50	46.256	-10.976	17.150	0.64526	-0.30756	0.33643	0.61298	23.0	13111	100
2025-5-24 8:37:28.634	WT901BLE68(801231B9234C)	-1.206	-0.278	0.317	-94.910	30.212	96.375	30.16	54.56	146.54	46.256	-10.976	17.150	0.64526	-0.30756	0.33643	0.61298	23.0	13111	100
2025-5-24 8:37:28.692	WT901BLE68(801231B9234C)	-0.851	-0.368	0.262	-93.872	-14.160	82.458	30.28	53.93	149.14	46.256	-10.976	17.150	0.64526	-0.30756	0.33643	0.61298	23.0	13111	100
2025-5-24 8:37:28.692	WT901BLE68(801231B9234C)	-0.409	-0.675	0.291	-123.840	-31.677	87.769	29.67	52.89	151.08	46.256	-10.976	17.150	0.64526	-0.30756	0.33643	0.61298	23.0	13111	100
2025-5-24 8:37:28.752	WT901BLE68(801231B9234C)	-0.186	-0.333	0.043	-94.299	-33.752	69.885	28.66	51.82	152.67	46.256	-10.976	17.150	0.64526	-0.30756	0.33643	0.61298	23.0	13111	100
2025-5-24 8:37:28.752	WT901BLE68(801231B9234C)	0.002	-0.932	0.197	-87.280	-21.301	48.279	27.48	51.11	153.89	46.256	-10.976	17.150	0.64526	-0.30756	0.33643	0.61298	23.0	13111	100
2025-5-24 8:37:28.783	WT901BLE68(801231B9234C)	0.090	-1.222	0.271	-57.190	-30.029	1.221	25.80	50.83	153.95	46.256	-10.976	17.150	0.29581	-0.35690	0.28470	0.83902	23.0	13111	100
2025-5-24 8:37:28.783	WT901BLE68(801231B9234C)	0.050	-1.206	0.268	-21.240	-44.067	-47.424	23.37	50.65	152.20	46.256	-10.976	17.150	0.29581	-0.35690	0.28470	0.83902	23.0	13111	100
2025-5-24 8:37:28.812	WT901BLE68(801231B9234C)	-0.024	-0.883	0.169	-7.813	-37.354	-85.449	20.19	50.73	149.06	46.256	-10.976	17.150	0.29581	-0.35690	0.28470	0.83902	23.0	13111	100
2025-5-24 8:37:28.812	WT901BLE68(801231B9234C)	-0.204	-0.727	0.149	20.081	-25.024	-123.108	16.64	51.11	144.90	46.256	-10.976	17.150	0.29581	-0.35690	0.28470	0.83902	23.0	13111	100
2025-5-24 8:37:28.842	WT901BLE68(801231B9234C)	-0.505	-0.676	0.189	60.425	-27.039	-155.090	12.93	51.53	139.60	46.256	-10.976	17.150	0.29581	-0.35690	0.28470	0.83902	23.0	13111	100
2025-5-24 8:37:28.842	WT901BLE68(801231B9234C)	-1.150	-0.633	0.220	81.482	-18.372	-180.115	9.11	51.87	133.42	46.256	-10.976	17.150	0.29581	-0.35690	0.28470	0.83902	23.0	13111	100
2025-5-24 8:37:28.904	WT901BLE68(801231B9234C)	-2.970	-0.780	0.393	96.680	1.343	-186.462	5.30	52.28	126.91	46.256	-10.976	17.150	0.29581	-0.35690	0.28470	0.83902	23.0	13111	100
2025-5-24 8:37:28.904	WT901BLE68(801231B9234C)	-3.492	-0.775	0.805	94.055	-18.433	-194.946	1.34	52.62	120.07	46.256	-10.976	17.150	0.29581	-0.35690	0.28470	0.83902	23.0	13111	100
2025-5-24 8:37:28.961	WT901BLE68(801231B9234C)	-3.765	-0.274	0.572	112.000	-188.843	-154.724	-1.24	50.17	114.77	46.256	-10.976	17.150	0.29581	-0.35690	0.28470	0.83902	23.0	13111	100
2025-5-24 8:37:28.962	WT901BLE68(801231B9234C)	-2.488	0.547	0.602	82.397	-266.296	-209.351	-3.58	45.58	109.48	44.786	-24.402	11.466	0.29581	-0.35690	0.28470	0.83902	23.0	13111	100
2025-5-24 8:37:28.963	WT901BLE68(801231B9234C)	-0.947	0.977	0.442	49.561	-263.123	-176.758	-6.15	39.92	104.82	44.786	-24.402	11.466	0.29581	-0.35690	0.28470	0.83902	23.0	13111	100
2025-5-24 8:37:28.963	WT901BLE68(801231B9234C)	-1.161	1.515	0.421	100.586	-6.653	-105.286	-6.21	37.90	102.33	44.786	-24.402	11.466	0.29581	-0.35690	0.28470	0.83902	23.0	13111	100
2025-5-24 8:37:29.52	WT901BLE68(801231B9234C)	-1.261	0.595	0.437	50.964	181.091	-186.523	-7.83	40.49	98.12	44.786	-24.402	11.466	0.29581	-0.35690	0.28470	0.83902	23.0	13111	100
2025-5-24 8:37:29.52	WT901BLE68(801231B9234C)	-0.839	0.493	0.285	132.324	203.003	-127.014	-8.90	44.53	93.49	44.786	-24.402	11.466	0.29581	-0.35690	0.28470	0.83902	23.0	13111	100
2025-5-24 8:37:29.53	WT901BLE68(801231B9234C)	-0.510	0.586	0.219	146.484	185.669	-88.684	-8.43	48.40	90.07	44.786	-24.402	11.466	0.29581	-0.35690	0.28470	0.83902	23.0	13111	100
2025-5-24 8:37:29.53	WT901BLE68(801231B9234C)	-0.256	0.590	0.146	149.170	187.439	-63.293	-7.43	52.22	87.26	44.786	-24.402	11.466	0.29581	-0.35690	0.28470	0.83902	23.0	13111	100
2025-5-24 8:37:29.84	WT901BLE68(801231B9234C)	0.136	0.692	0.051	155.212	172.791	-38.696	-5.70	55.95	85.24	44.786	-24.402	11.466	0.29581	-0.35690	0.28470	0.83902	23.0	13111	100
2025-5-24 8:37:29.84	WT901BLE68(801231B9234C)	0.236	1.719	0.041	153.015	128.479	-22.278	-3.21	58.98	84.22	44.786	-24.402	11.466	0.29581	-0.35690	0.28470	0.83902	23.0	13111	100
2025-5-24 8:37:29.143	WT901BLE68(801231B9234C)	0.243	1.108	-0.066	101.440	50.354	1.953	-0.22	60.70	84.36	44.786	-24.402	11.466	0.29581	-0.35690	0.28470	0.83902	23.0	13111	100
2025-5-24 8:37:29.143	WT901BLE68(801231B9234C)	0.175	1.122	-0.042	19.714	-14.282	17.456	2.50	60.79	85.56	44.786	-24.402	11.466	0.29581	-0.35690	0.28470	0.83902	23.0	13111	100
2025-5-24 8:37:29.174	WT901BLE68(801231B9234C)	0.252	0.708	-0.081	-45.471	-49.011	40.222	4.11	59.86	87.36	44.786	-24.402	11.466	0.64059	-0.31366	0.38086	0.58829	23.0	13111	100
2025-5-24 8:37:29.174	WT901BLE68(801231B9234C)	0.068	0.729	-0.208	-56.458	-44.678	93.384	6.70	58.60	90.81	44.786	-24.402	11.466	0.64059	-0.31366	0.38086	0.58829	23.0	13111	100
2025-5-24 8:37:29.205	WT901BLE68(801231B9234C)	-0.574	0.920	-0.100	-116.211	-35.461	139.709	9.90	57.20	95.95	44.786	-24.402	11.466	0.64059	-0.31366	0.38086	0.58829	23.0	13111	100
2025-5-24 8:37:29.205	WT901BLE68(801231B9234C)	-1.916	0.946	-0.049	-193.359	-28.015	178.650	12.51	55.69	102.16	44.786	-24.402	11.466	0.64059	-0.31366	0.38086	0.58829	23.0	13111	100
2025-5-24 8:37:29.292	WT901BLE68(801231B9234C)	-2.711	0.938	0.067	-265.564	-53.040	196.777	13.79	53.70	108.73	44.786	-24.402	11.466	0.64059	-0.31366	0.38086	0.58829	23.0	13111	100
2025-5-24 8:37:29.292	WT901BLE68(801231B9234C)	-2.349	0.516	0.622	-228.271	-80.872	275.574	15.17	51.17	115.98	44.786	-24.402	11.466	0.64059	-0.31366	0.38086	0.58829	23.0	13111	100
2025-5-24 8:37:29.292	WT901BLE68(801231B9234C)	-2.494	0.776	0.932	-172.363	-25.513	250.000	17.85	48.27	123.52	44.786	-24.402	11.466	0.64059	-0.31366	0.38086	0.58829	23.0	13111	100
2025-5-24 8:37:29.293	WT901BLE68(801231B9234C)	-2.262	0.650	0.959	-151.672	132.202	169.128	19.57	48.62	129.55	44.786	-24.402	11.466	0.64059	-0.31366	0.38086	0.58829	23.0	13111	100
2025-5-24 8:37:29.324	WT901BLE68(801231B9234C)	-2.083	0.202	0.629	-102.234	205.261	160.095	22.66	51.00	136.26	44.786	-24.402	11.466	0.64059	-0.31366	0.38086	0.58829	23.0	13111	100
2025-5-24 8:37:29.324	WT901BLE68(801231B9234C)	-1.746	-0.160	0.482	-90.454	194.702	145.142	26.70	53.57	143.44	44.786	-24.402	11.466	0.64059	-0.31366	0.38086	0.58829	23.0	13111	100
2025-5-24 8:37:29.382	WT901BLE68(801231B9234C)	-1.399	-0.374	0.398	-77.087	146.606	132.751	30.72	55.29	150.31	41.552	-24.206	18.130	0.64059	-0.31366	0.38086	0.58829	23.0	13111	100
2025-5-24 8:37:29.382	WT901BLE68(801231B9234C)	-1.122	-0.448	0.309	-71.716	95.459	107.300	33.87	56.17	155.93	41.552	-24.206	18.130	0.64059	-0.31366	0.38086	0.58829	23.0	13111	100
2025-5-24 8:37:29.411	WT901BLE68(801231B9234C)	-0.884	-0.760	0.240	-67.444	39.551	91.614	35.46	56.28	160.08	41.552	-24.206	18.130	0.64059	-0.31366	0.38086	0.58829	23.0	13111	100
2025-5-24 8:37:29.411	WT901BLE68(801231B9234C)	-0.525	-0.749	0.264	-61.279	-2.380	79.590	35.96	55.76	162.70	41.552	-24.206	18.130	0.64059	-0.31366	0.38086	0.58829	23.0	13111	100
2025-5-24 8:37:29.443	WT901BLE68(801231B9234C)	-0.174	-0.743	0.297	-55.542	-46.326	70.862	35.57	54.70	163.98	41.552	-24.206	18.130	0.64059	-0.31366	0.38086	0.58829	23.0	13111	100
2025-5-24 8:37:29.444	WT901BLE68(801231B9234C)	0.219	-0.866	0.357	-54.321	-87.585	38.086	34.07	53.22	163.75	41.552	-24.206	18.130	0.64059	-0.31366	0.38086	0.58829	23.0	13111	100
2025-5-24 8:37:29.502	WT901BLE68(801231B9234C)	0.342	-1.082	0.329	-35.645	-106.262	-6.348	31.55	51.73	161.94	41.552	-24.206	18.130	0.64059	-0.31366	0.38086	0.58829	23.0	13111	100
2025-5-24 8:37:29.502	WT901BLE68(801231B9234C)	0.133	-1.089	0.242	-10.864	-86.670	-53.711	28.30	50.71	158.79	41.552	-24.206	18.130	0.64059	-0.31366	0.38086	0.58829	23.0	13111	100
2025-5-24 8:37:29.534	WT901BLE68(801231B9234C)	-0.078	-0.913	0.236	18.555	-14.587	-96.985	25.26	51.00	155.19	41.552	-24.206	18.130	0.64059	-0.31366	0.38086	0.58829	23.0	13111	100
2025-5-24 8:37:29.534	WT901BLE68(801231B9234C)	-0.367	-0.743	0.217	52.063	19.592	-126.221	22.40	52.39	151.13	41.552	-24.206	18.130	0.64059	-0.31366	0.38086	0.58829	23.0	13111	100
2025-5-24 8:37:29.563	WT901BLE68(801231B9234C)	-1.188	-0.620	0.206	80.383	22.888	-152.954	19.32	54.03	146.10	41.552	-24.206	18.130	0.64059	-0.31366	0.38086	0.58829	23.0	13111	100
2025-5-24 8:37:29.564	WT901BLE68(801231B9234C)	-2.950	-0.611	0.295	81.970	10.376	-188.171	15.41	55.56	139.81	41.552	-24.206	18.130	0.36191	-0.38715	0.27261	0.80292	23.0	13111	100
2025-5-24 8:37:29.622	WT901BLE68(801231B9234C)	-3.229	-0.828	0.700	90.271	-64.453	-198.242	10.19	56.08	131.90	41.552	-24.206	18.130	0.36191	-0.38715	0.27261	0.80292	23.0	13111	100
2025-5-24 8:37:29.623	WT901BLE68(801231B9234C)	-3.299	-0.319	0.863	94.299	-294.128	-152.893	5.97	52.48	125.00	41.552	-24.206	18.130	0.36191	-0.38715	0.27261	0.80292	23.0	13111	100
2025-5-24 8:37:29.651	WT901BLE68(801231B9234C)	-2.786	0.487	0.701	68.481	-277.161	-226.135	2.31	47.09	118.21	41.552	-24.206	18.130	0.36191	-0.38715	0.27261	0.80292	23.0	13111	100
2025-5-24 8:37:29.651	WT901BLE68(801231B9234C)	-1.547	0.809	0.526	5.981	-228.943	-239.075	-2.40	42.53	111.49	41.552	-24.206	18.130	0.36191	-0.38715	0.27261	0.80292	23.0	13111	100
2025-5-24 8:37:29.682	WT901BLE68(801231B9234C)	-1.417	1.393	0.377	68.909	-66.467	-158.020	-4.70	40.03	106.96	41.552	-24.206	18.130	0.36191	-0.38715	0.27261	0.80292	23.0	13111	100
2025-5-24 8:37:29.682	WT901BLE68(801231B9234C)	-1.365	0.916	0.370	42.053	114.929	-193.054	-6.73	41.21	102.47	41.552	-24.206	18.130	0.36191	-0.38715	0.27261	0.80292	23.0	13111	100
2025-5-24 8:37:29.742	WT901BLE68(801231B9234C)	-0.881	0.586	0.256	102.295	171.692	-148.621	-8.54	44.41	97.59	41.552	-24.206	18.130	0.36191	-0.38715	0.27261	0.80292	23.0	13111	100
2025-5-24 8:37:29.743	WT901BLE68(801231B9234C)	-0.505	0.720	0.115	134.888	165.100	-109.070	-8.73	47.75	93.73	41.552	-24.206	18.130	0.36191	-0.38715	0.27261	0.80292	23.0	13111	100
2025-5-24 8:37:29.802	WT901BLE68(801231B9234C)	-0.355	0.787	0.081	126.892	160.339	-80.688	-8.39	51.08	90.47	45.178	-10.976	11.662	0.36191	-0.38715	0.27261	0.80292	23.0	13111	100
2025-5-24 8:37:29.803	WT901BLE68(801231B9234C)	-0.185	0.811	0.049	114.441	111.694	-47.363	-7.45	53.83	88.22	45.178	-10.976	11.662	0.36191	-0.38715	0.27261	0.80292	23.0	13111	100
2025-5-24 8:37:29.803	WT901BLE68(801231B9234C)	0.205	0.829	0.002	101.135	27.222	-19.165	-5.71	55.20	87.24	45.178	-10.976	11.662	0.36191	-0.38715	0.27261	0.80292	23.0	13111	100
2025-5-24 8:37:29.804	WT901BLE68(801231B9234C)	0.597	0.737	-0.093	80.139	-44.434	9.155	-3.18	54.94	87.56	45.178	-10.976	11.662	0.36191	-0.38715	0.27261	0.80292	23.0	13111	100
2025-5-24 8:37:29.862	WT901BLE68(801231B9234C)	0.684	0.809	-0.120	44.434	-58.105	20.020	-0.55	53.89	88.59	45.178	-10.976	11.662	0.36191	-0.38715	0.27261	0.80292	23.0	13111	100
2025-5-24 8:37:29.862	WT901BLE68(801231B9234C)	0.404	0.630	-0.097	8.789	-17.029	41.138	1.81	53.13	90.15	45.178	-10.976	11.662	0.36191	-0.38715	0.27261	0.80292	23.0	13111	100
2025-5-24 8:37:29.891	WT901BLE68(801231B9234C)	-0.087	0.602	-0.105	-12.329	47.241	69.580	4.53	53.37	92.80	45.178	-10.976	11.662	0.36191	-0.38715	0.27261	0.80292	23.0	13111	100
2025-5-24 8:37:29.891	WT901BLE68(801231B9234C)	-0.860	0.909	-0.040	-68.115	64.087	118.225	7.88	54.20	97.09	45.178	-10.976	11.662	0.36191	-0.38715	0.27261	0.80292	23.0	13111	100
2025-5-24 8:37:29.924	WT901BLE68(801231B9234C)	-2.317	1.075	-0.014	-153.076	19.714	160.645	10.72	54.15	102.78	45.178	-10.976	11.662	0.36191	-0.38715	0.27261	0.80292	23.0	13111	100
2025-5-24 8:37:29.925	WT901BLE68(801231B9234C)	-2.469	1.144	0.116	-219.482	2.869	178.711	12.56	53.29	108.90	45.178	-10.976	11.662	0.36191	-0.38715	0.27261	0.80292	23.0	13111	100
2025-5-24 8:37:30.13	WT901BLE68(801231B9234C)	-2.336	0.776	0.702	-167.480	-7.935	257.935	15.44	52.27	116.55	45.178	-10.976	11.662	0.50128	-0.29993	0.33228	0.74045	23.0	13111	100
2025-5-24 8:37:30.13	WT901BLE68(801231B9234C)	-2.532	1.135	0.706	-156.555	91.003	173.706	18.44	51.65	123.52	45.178	-10.976	11.662	0.50128	-0.29993	0.33228	0.74045	23.0	13111	100
2025-5-24 8:37:30.14	WT901BLE68(801231B9234C)	-2.280	0.568	0.688	-147.827	206.482	134.521	20.79	54.07	129.79	45.178	-10.976	11.662	0.50128	-0.29993	0.33228	0.74045	23.0	13111	100
2025-5-24 8:37:30.14	WT901BLE68(801231B9234C)	-2.096	0.105	0.546	-118.835	188.293	151.001	24.71	56.71	137.21	45.178	-10.976	11.662	0.50128	-0.29993	0.33228	0.74045	23.0	13111	100
2025-5-24 8:37:30.81	WT901BLE68(801231B9234C)	-1.876	-0.268	0.454	-110.229	160.950	165.222	29.59	58.33	145.40	45.178	-10.976	11.662	0.50128	-0.29993	0.33228	0.74045	23.0	13111	100
2025-5-24 8:37:30.82	WT901BLE68(801231B9234C)	-1.537	-0.518	0.437	-97.839	107.361	142.700	34.13	59.04	153.05	45.178	-10.976	11.662	0.50128	-0.29993	0.33228	0.74045	23.0	13111	100
2025-5-24 8:37:30.163	WT901BLE68(801231B9234C)	-1.131	0.286	0.322	-102.112	20.508	76.538	36.19	58.84	157.59	45.178	-10.976	11.662	0.50128	-0.29993	0.33228	0.74045	23.0	13111	100
2025-5-24 8:37:30.163	WT901BLE68(801231B9234C)	-0.725	1.971	0.073	-70.007	-45.776	62.744	35.90	57.74	159.37	45.178	-10.976	11.662	0.50128	-0.29993	0.33228	0.74045	23.0	13111	100
2025-5-24 8:37:30.164	WT901BLE68(801231B9234C)	-0.323	-0.547	0.370	-63.416	-74.768	50.049	34.69	56.23	159.59	45.178	-10.976	11.662	0.50128	-0.29993	0.33228	0.74045	23.0	13111	100
2025-5-24 8:37:30.164	WT901BLE68(801231B9234C)	-0.038	-0.664	0.285	-57.556	-73.425	40.710	33.09	54.74	159.25	45.178	-10.976	11.662	0.50128	-0.29993	0.33228	0.74045	23.0	13111	100
2025-5-24 8:37:30.165	WT901BLE68(801231B9234C)	0.088	-0.801	0.297	-49.438	-53.711	16.724	31.53	53.67	158.79	45.178	-10.976	11.662	0.50128	-0.29993	0.33228	0.74045	23.0	13111	100
2025-5-24 8:37:30.165	WT901BLE68(801231B9234C)	0.098	-1.007	0.293	-27.283	-42.847	-17.517	29.65	53.19	157.62	45.178	-10.976	11.662	0.50128	-0.29993	0.33228	0.74045	23.0	13111	100
2025-5-24 8:37:30.223	WT901BLE68(801231B9234C)	-0.013	-0.980	0.236	-9.216	-47.302	-54.382	27.08	53.10	155.22	33.418	-34.496	19.012	0.50128	-0.29993	0.33228	0.74045	23.0	13111	100
2025-5-24 8:37:30.223	WT901BLE68(801231B9234C)	-0.125	-0.814	0.211	7.080	-42.969	-84.167	23.98	53.20	151.79	33.418	-34.496	19.012	0.50128	-0.29993	0.33228	0.74045	23.0	13111	100
2025-5-24 8:37:30.254	WT901BLE68(801231B9234C)	-0.343	-0.624	0.223	21.729	-42.603	-110.352	20.43	53.39	147.47	33.418	-34.496	19.012	0.50128	-0.29993	0.33228	0.74045	23.0	13111	100
2025-5-24 8:37:30.254	WT901BLE68(801231B9234C)	-0.688	-0.516	0.250	41.260	-49.133	-145.630	16.34	53.53	142.06	33.418	-34.496	19.012	0.50128	-0.29993	0.33228	0.74045	23.0	13111	100
2025-5-24 8:37:30.312	WT901BLE68(801231B9234C)	-1.695	-0.536	0.235	55.359	-40.649	-172.180	11.85	53.59	135.73	33.418	-34.496	19.012	0.50128	-0.29993	0.33228	0.74045	23.0	13111	100
2025-5-24 8:37:30.312	WT901BLE68(801231B9234C)	-2.952	-0.686	0.528	59.204	-29.724	-204.590	7.01	53.70	128.72	33.418	-34.496	19.012	0.50128	-0.29993	0.33228	0.74045	23.0	13111	100
2025-5-24 8:37:30.344	WT901BLE68(801231B9234C)	-3.128	-0.571	0.712	60.120	-130.859	-178.162	2.11	52.61	121.67	33.418	-34.496	19.012	0.50128	-0.29993	0.33228	0.74045	23.0	13111	100
2025-5-24 8:37:30.344	WT901BLE68(801231B9234C)	-3.183	-0.279	0.570	70.374	-234.741	-167.603	-1.09	48.66	116.29	33.418	-34.496	19.012	0.50128	-0.29993	0.33228	0.74045	23.0	13111	100
2025-5-24 8:37:30.375	WT901BLE68(801231B9234C)	-2.115	0.654	0.607	4.456	-224.182	-211.914	-4.71	44.21	110.84	33.418	-34.496	19.012	0.50128	-0.29993	0.33228	0.74045	23.0	13111	100
2025-5-24 8:37:30.375	WT901BLE68(801231B9234C)	-1.271	0.960	0.480	33.020	-152.161	-168.640	-7.73	40.35	106.35	33.418	-34.496	19.012	0.55084	-0.30453	0.15402	0.76157	23.0	13111	100
2025-5-24 8:37:30.432	WT901BLE68(801231B9234C)	-1.365	1.527	0.376	64.575	69.580	-121.948	-8.53	40.15	103.35	33.418	-34.496	19.012	0.55084	-0.30453	0.15402	0.76157	23.0	13111	100
2025-5-24 8:37:30.432	WT901BLE68(801231B9234C)	-1.113	0.703	0.356	65.430	203.674	-149.963	-10.33	43.43	99.00	33.418	-34.496	19.012	0.55084	-0.30453	0.15402	0.76157	23.0	13111	100
2025-5-24 8:37:30.461	WT901BLE68(801231B9234C)	-0.637	0.672	0.226	132.324	200.439	-95.459	-10.87	47.46	94.95	33.418	-34.496	19.012	0.55084	-0.30453	0.15402	0.76157	23.0	13111	100
2025-5-24 8:37:30.461	WT901BLE68(801231B9234C)	-0.447	0.745	0.185	146.973	187.073	-58.289	-10.00	51.29	92.02	33.418	-34.496	19.012	0.55084	-0.30453	0.15402	0.76157	23.0	13111	100
2025-5-24 8:37:30.491	WT901BLE68(801231B9234C)	-0.433	0.730	0.198	136.902	161.987	-27.222	-8.39	54.90	90.10	33.418	-34.496	19.012	0.55084	-0.30453	0.15402	0.76157	23.0	13111	100
2025-5-24 8:37:30.491	WT901BLE68(801231B9234C)	-0.210	0.699	0.257	129.822	89.844	-1.953	-5.93	57.43	89.48	33.418	-34.496	19.012	0.55084	-0.30453	0.15402	0.76157	23.0	13111	100
2025-5-24 8:37:30.552	WT901BLE68(801231B9234C)	0.200	0.901	0.192	127.869	-2.625	28.198	-2.16	58.20	90.39	33.418	-34.496	19.012	0.55084	-0.30453	0.15402	0.76157	23.0	13111	100
2025-5-24 8:37:30.552	WT901BLE68(801231B9234C)	0.563	1.074	0.161	88.989	-59.448	41.138	1.90	57.44	92.16	33.418	-34.496	19.012	0.55084	-0.30453	0.15402	0.76157	23.0	13111	100
2025-5-24 8:37:30.584	WT901BLE68(801231B9234C)	0.585	0.998	0.038	35.706	-69.397	50.293	5.17	55.94	94.13	41.258	-3.724	19.012	0.55084	-0.30453	0.15402	0.76157	23.0	13111	100
2025-5-24 8:37:30.584	WT901BLE68(801231B9234C)	0.418	0.824	-0.089	-10.071	-30.212	71.716	7.95	54.68	96.66	41.258	-3.724	19.012	0.55084	-0.30453	0.15402	0.76157	23.0	13111	100
2025-5-24 8:37:30.612	WT901BLE68(801231B9234C)	0.097	0.697	-0.153	-50.354	18.860	109.924	10.94	54.13	100.46	41.258	-3.724	19.012	0.55084	-0.30453	0.15402	0.76157	23.0	13111	100
2025-5-24 8:37:30.612	WT901BLE68(801231B9234C)	-0.508	0.742	0.011	-101.318	45.898	156.738	14.40	53.89	105.95	41.258	-3.724	19.012	0.55084	-0.30453	0.15402	0.76157	23.0	13111	100
2025-5-24 8:37:30.674	WT901BLE68(801231B9234C)	-1.730	0.888	0.046	-163.513	58.105	198.669	17.85	53.47	112.92	41.258	-3.724	19.012	0.55084	-0.30453	0.15402	0.76157	23.0	13111	100
2025-5-24 8:37:30.675	WT901BLE68(801231B9234C)	-2.872	1.164	-0.088	-235.596	67.566	201.416	20.35	52.96	120.34	41.258	-3.724	19.012	0.55084	-0.30453	0.15402	0.76157	23.0	13111	100
2025-5-24 8:37:30.702	WT901BLE68(801231B9234C)	-2.508	0.840	0.463	-243.469	56.030	228.943	21.79	52.50	127.77	41.258	-3.724	19.012	0.55084	-0.30453	0.15402	0.76157	23.0	13111	100
2025-5-24 8:37:30.702	WT901BLE68(801231B9234C)	-2.413	0.910	0.496	-179.138	42.542	214.783	24.15	51.14	135.03	41.258	-3.724	19.012	0.55084	-0.30453	0.15402	0.76157	23.0	13111	100
2025-5-24 8:37:30.762	WT901BLE68(801231B9234C)	-2.295	0.803	0.341	-179.504	209.961	121.033	26.14	52.61	141.50	41.258	-3.724	19.012	0.55084	-0.30453	0.15402	0.76157	23.0	13111	100
2025-5-24 8:37:30.762	WT901BLE68(801231B9234C)	-2.087	0.263	0.154	-168.579	216.675	108.765	28.64	55.73	148.45	41.258	-3.724	19.012	0.55084	-0.30453	0.15402	0.76157	23.0	13111	100
2025-5-24 8:37:30.792	WT901BLE68(801231B9234C)	-1.709	-0.162	0.210	-139.465	134.705	119.446	31.49	57.56	155.18	41.258	-3.724	19.012	0.28625	-0.40656	0.33368	0.80081	23.0	13111	100
2025-5-24 8:37:30.793	WT901BLE68(801231B9234C)	-1.359	-0.302	0.318	-116.150	72.083	125.366	34.10	57.94	161.05	41.258	-3.724	19.012	0.28625	-0.40656	0.33368	0.80081	23.0	13111	100
2025-5-24 8:37:30.824	WT901BLE68(801231B9234C)	-1.076	-0.355	0.299	-108.398	33.325	103.333	35.69	57.60	165.51	41.258	-3.724	19.012	0.28625	-0.40656	0.33368	0.80081	23.0	13111	100
2025-5-24 8:37:30.825	WT901BLE68(801231B9234C)	-0.800	-0.742	0.286	-112.549	17.212	83.008	35.85	57.17	168.62	41.258	-3.724	19.012	0.28625	-0.40656	0.33368	0.80081	23.0	13111	100
2025-5-24 8:37:30.853	WT901BLE68(801231B9234C)	-0.538	-0.617	0.191	-92.285	20.203	61.462	35.76	56.99	170.91	41.258	-3.724	19.012	0.28625	-0.40656	0.33368	0.80081	23.0	13111	100
2025-5-24 8:37:30.854	WT901BLE68(801231B9234C)	-0.265	-0.639	0.141	-87.646	6.775	56.824	35.44	56.84	172.80	41.258	-3.724	19.012	0.28625	-0.40656	0.33368	0.80081	23.0	13111	100
2025-5-24 8:37:30.911	WT901BLE68(801231B9234C)	-0.097	-0.780	0.159	-62.195	-12.939	51.086	34.93	56.44	174.09	41.258	-3.724	19.012	0.28625	-0.40656	0.33368	0.80081	23.0	13111	100
2025-5-24 8:37:30.911	WT901BLE68(801231B9234C)	0.063	-0.966	0.279	-32.288	-29.541	18.127	33.83	56.09	174.16	41.258	-3.724	19.012	0.28625	-0.40656	0.33368	0.80081	23.0	13111	100
2025-5-24 8:37:30.944	WT901BLE68(801231B9234C)	0.096	-0.990	0.281	-18.860	-47.302	-26.733	31.76	55.92	172.52	41.258	-3.724	19.012	0.28625	-0.40656	0.33368	0.80081	23.0	13111	100
2025-5-24 8:37:30.944	WT901BLE68(801231B9234C)	-0.052	-0.877	0.292	6.165	-32.166	-60.608	29.04	56.07	169.62	41.258	-3.724	19.012	0.28625	-0.40656	0.33368	0.80081	23.0	13111	100
2025-5-24 8:37:30.974	WT901BLE68(801231B9234C)	-0.231	-0.731	0.304	28.320	6.226	-94.421	26.12	57.05	165.99	41.258	-3.724	19.012	0.28625	-0.40656	0.33368	0.80081	23.0	13111	100
2025-5-24 8:37:30.974	WT901BLE68(801231B9234C)	-0.550	-0.673	0.310	61.340	26.245	-123.535	22.96	58.65	161.48	23.422	-35.084	17.542	0.28625	-0.40656	0.33368	0.80081	23.0	13111	100
2025-5-24 8:37:31.33	WT901BLE68(801231B9234C)	-1.418	-0.613	0.267	83.374	43.335	-151.428	19.25	60.58	155.76	23.422	-35.084	17.542	0.28625	-0.40656	0.33368	0.80081	23.0	13111	100
2025-5-24 8:37:31.34	WT901BLE68(801231B9234C)	-3.124	-0.619	0.248	78.918	38.452	-181.702	14.23	62.58	148.51	23.422	-35.084	17.542	0.28625	-0.40656	0.33368	0.80081	23.0	13111	100
2025-5-24 8:37:31.64	WT901BLE68(801231B9234C)	-3.662	-0.758	0.514	98.511	-14.709	-197.754	7.56	63.80	139.38	23.422	-35.084	17.542	0.28625	-0.40656	0.33368	0.80081	23.0	13111	100
2025-5-24 8:37:31.64	WT901BLE68(801231B9234C)	-3.591	-0.342	0.304	118.896	-235.107	-173.706	1.70	61.09	130.52	23.422	-35.084	17.542	0.28625	-0.40656	0.33368	0.80081	23.0	13111	100
2025-5-24 8:37:31.93	WT901BLE68(801231B9234C)	-2.650	0.361	0.239	113.281	-281.128	-201.782	-2.38	55.84	123.19	23.422	-35.084	17.542	0.28625	-0.40656	0.33368	0.80081	23.0	13111	100
2025-5-24 8:37:31.94	WT901BLE68(801231B9234C)	-1.343	1.126	0.299	100.525	-231.262	-194.763	-5.67	50.77	116.90	23.422	-35.084	17.542	0.28625	-0.40656	0.33368	0.80081	23.0	13111	100
2025-5-24 8:37:31.182	WT901BLE68(801231B9234C)	-1.305	1.741	0.280	156.067	-15.503	-124.634	-6.21	48.71	112.85	23.422	-35.084	17.542	0.28625	-0.40656	0.33368	0.80081	23.0	13111	100
2025-5-24 8:37:31.182	WT901BLE68(801231B9234C)	-1.351	0.912	0.296	89.417	168.945	-192.200	-7.97	51.03	107.61	23.422	-35.084	17.542	0.28625	-0.40656	0.33368	0.80081	23.0	13111	100
2025-5-24 8:37:31.183	WT901BLE68(801231B9234C)	-0.815	0.606	0.215	171.143	161.316	-132.996	-9.85	54.39	101.74	23.422	-35.084	17.542	0.28625	-0.40656	0.33368	0.80081	23.0	13111	100
2025-5-24 8:37:31.183	WT901BLE68(801231B9234C)	-0.414	0.859	0.092	181.274	106.567	-77.271	-9.07	56.90	98.06	23.422	-35.084	17.542	0.55701	-0.39737	0.27325	0.67609	23.0	13111	100
2025-5-24 8:37:31.211	WT901BLE68(801231B9234C)	-0.225	0.827	0.089	155.945	82.397	-49.072	-7.47	58.79	95.74	23.422	-35.084	17.542	0.55701	-0.39737	0.27325	0.67609	23.0	13111	100
2025-5-24 8:37:31.211	WT901BLE68(801231B9234C)	0.011	0.746	0.079	133.545	40.100	-24.048	-5.27	60.09	94.63	23.422	-35.084	17.542	0.55701	-0.39737	0.27325	0.67609	23.0	13111	100
2025-5-24 8:37:31.274	WT901BLE68(801231B9234C)	0.360	0.783	0.022	119.263	-3.723	-11.536	-2.56	60.47	94.39	23.422	-35.084	17.542	0.55701	-0.39737	0.27325	0.67609	23.0	13111	100
2025-5-24 8:37:31.274	WT901BLE68(801231B9234C)	0.612	0.919	-0.115	84.656	-36.316	2.747	0.31	60.07	94.80	23.422	-35.084	17.542	0.55701	-0.39737	0.27325	0.67609	23.0	13111	100
2025-5-24 8:37:31.300	WT901BLE68(801231B9234C)	0.558	0.792	-0.113	10.986	-24.231	12.085	2.49	59.43	95.70	23.422	-35.084	17.542	0.55701	-0.39737	0.27325	0.67609	23.0	13111	100
2025-5-24 8:37:31.300	WT901BLE68(801231B9234C)	0.381	0.465	-0.097	-40.955	14.648	31.982	4.02	59.30	97.31	23.422	-35.084	17.542	0.55701	-0.39737	0.27325	0.67609	23.0	13111	100
2025-5-24 8:37:31.334	WT901BLE68(801231B9234C)	0.055	0.464	-0.211	-61.768	46.692	76.233	6.48	59.66	100.61	23.422	-35.084	17.542	0.55701	-0.39737	0.27325	0.67609	23.0	13111	100
2025-5-24 8:37:31.334	WT901BLE68(801231B9234C)	-0.465	0.705	-0.177	-103.333	58.777	114.014	10.02	60.20	105.82	23.422	-35.084	17.542	0.55701	-0.39737	0.27325	0.67609	23.0	13111	100
2025-5-24 8:37:31.392	WT901BLE68(801231B9234C)	-1.506	0.957	-0.049	-184.937	10.376	128.235	12.86	59.94	111.76	34.202	-4.312	18.718	0.55701	-0.39737	0.27325	0.67609	23.0	13111	100
2025-5-24 8:37:31.392	WT901BLE68(801231B9234C)	-2.702	1.089	-0.044	-274.475	-15.259	119.934	13.40	58.83	117.09	34.202	-4.312	18.718	0.55701	-0.39737	0.27325	0.67609	23.0	13111	100
2025-5-24 8:37:31.422	WT901BLE68(801231B9234C)	-2.217	0.605	0.233	-277.405	9.949	189.026	13.41	57.92	123.06	34.202	-4.312	18.718	0.55701	-0.39737	0.27325	0.67609	23.0	13111	100
2025-5-24 8:37:31.422	WT901BLE68(801231B9234C)	-2.415	0.599	0.483	-190.918	-39.307	224.243	16.22	56.18	130.81	34.202	-4.312	18.718	0.55701	-0.39737	0.27325	0.67609	23.0	13111	100
2025-5-24 8:37:31.451	WT901BLE68(801231B9234C)	-2.490	0.933	0.666	-162.476	138.062	127.930	18.54	56.52	137.09	34.202	-4.312	18.718	0.55701	-0.39737	0.27325	0.67609	23.0	13111	100
2025-5-24 8:37:31.451	WT901BLE68(801231B9234C)	-2.275	0.507	0.590	-129.211	197.266	124.512	21.80	59.30	143.84	34.202	-4.312	18.718	0.55701	-0.39737	0.27325	0.67609	23.0	13111	100
2025-5-24 8:37:31.511	WT901BLE68(801231B9234C)	-2.122	0.099	0.418	-98.450	157.043	139.954	26.89	61.38	151.75	34.202	-4.312	18.718	0.55701	-0.39737	0.27325	0.67609	23.0	13111	100
2025-5-24 8:37:31.511	WT901BLE68(801231B9234C)	-1.726	-0.198	0.385	-91.370	101.074	141.968	32.05	62.26	159.56	34.202	-4.312	18.718	0.55701	-0.39737	0.27325	0.67609	23.0	13111	100
2025-5-24 8:37:31.574	WT901BLE68(801231B9234C)	-1.238	-0.275	0.313	-79.529	18.860	123.718	35.56	61.73	165.33	34.202	-4.312	18.718	0.55701	-0.39737	0.27325	0.67609	23.0	13111	100
2025-5-24 8:37:31.574	WT901BLE68(801231B9234C)	-0.802	-0.316	0.274	-75.684	-30.640	102.417	36.83	60.35	168.49	34.202	-4.312	18.718	0.55701	-0.39737	0.27325	0.67609	23.0	13111	100
2025-5-24 8:37:31.575	WT901BLE68(801231B9234C)	-0.440	-0.666	0.243	-79.163	-37.109	91.980	36.90	58.82	170.69	34.202	-4.312	18.718	0.55701	-0.39737	0.27325	0.67609	23.0	13111	100
2025-5-24 8:37:31.575	WT901BLE68(801231B9234C)	-0.271	-0.660	0.196	-73.730	-18.005	85.205	36.90	57.59	172.73	34.202	-4.312	18.718	0.20563	-0.43335	0.31006	0.82077	23.0	13111	100
2025-5-24 8:37:31.634	WT901BLE68(801231B9234C)	-0.172	-0.826	0.203	-57.434	-16.235	68.604	36.74	56.76	174.33	34.202	-4.312	18.718	0.20563	-0.43335	0.31006	0.82077	23.0	13111	100
2025-5-24 8:37:31.634	WT901BLE68(801231B9234C)	-0.111	-1.035	0.314	-32.898	-48.645	29.419	35.89	56.01	174.58	34.202	-4.312	18.718	0.20563	-0.43335	0.31006	0.82077	23.0	13111	100
2025-5-24 8:37:31.692	WT901BLE68(801231B9234C)	-0.061	-1.092	0.338	-17.212	-78.735	-28.137	33.40	55.32	172.45	34.202	-4.312	18.718	0.20563	-0.43335	0.31006	0.82077	23.0	13111	100
2025-5-24 8:37:31.692	WT901BLE68(801231B9234C)	-0.234	-1.034	0.374	3.784	-66.284	-72.205	30.01	55.04	168.73	34.202	-4.312	18.718	0.20563	-0.43335	0.31006	0.82077	23.0	13111	100
2025-5-24 8:37:31.721	WT901BLE68(801231B9234C)	-0.504	-1.006	0.387	21.851	-19.653	-115.173	26.31	55.64	164.27	34.202	-4.312	18.718	0.20563	-0.43335	0.31006	0.82077	23.0	13111	100
2025-5-24 8:37:31.721	WT901BLE68(801231B9234C)	-0.829	-0.941	0.348	50.476	0.366	-151.978	22.20	56.95	158.79	34.202	-4.312	18.718	0.20563	-0.43335	0.31006	0.82077	23.0	13111	100
2025-5-24 8:37:31.754	WT901BLE68(801231B9234C)	-1.623	-0.763	0.284	66.956	-9.521	-180.603	17.29	58.26	151.94	34.202	-4.312	18.718	0.20563	-0.43335	0.31006	0.82077	23.0	13111	100
2025-5-24 8:37:31.754	WT901BLE68(801231B9234C)	-2.762	-0.705	0.313	66.406	-53.467	-200.684	11.20	58.72	143.62	34.202	-4.312	18.718	0.20563	-0.43335	0.31006	0.82077	23.0	13111	100
2025-5-24 8:37:31.783	WT901BLE68(801231B9234C)	-3.027	-0.592	0.495	83.862	-114.990	-194.641	5.34	57.73	135.26	34.202	-4.312	18.718	0.20563	-0.43335	0.31006	0.82077	23.0	13111	100
2025-5-24 8:37:31.784	WT901BLE68(801231B9234C)	-2.904	-0.174	0.305	123.413	-257.507	-184.570	0.94	53.93	127.81	28.420	-24.206	10.976	0.20563	-0.43335	0.31006	0.82077	23.0	13111	100
2025-5-24 8:37:31.842	WT901BLE68(801231B9234C)	-2.360	0.692	0.232	119.934	-238.708	-212.463	-1.91	49.10	121.34	28.420	-24.206	10.976	0.20563	-0.43335	0.31006	0.82077	23.0	13111	100
2025-5-24 8:37:31.842	WT901BLE68(801231B9234C)	-1.581	1.269	0.235	96.497	-161.133	-176.697	-4.22	45.38	115.96	28.420	-24.206	10.976	0.20563	-0.43335	0.31006	0.82077	23.0	13111	100
2025-5-24 8:37:31.874	WT901BLE68(801231B9234C)	-1.248	1.750	0.012	147.705	0.122	-104.553	-3.91	44.34	112.90	28.420	-24.206	10.976	0.20563	-0.43335	0.31006	0.82077	23.0	13111	100
2025-5-24 8:37:31.875	WT901BLE68(801231B9234C)	-0.969	0.800	0.011	102.295	138.184	-123.596	-4.31	46.53	109.56	28.420	-24.206	10.976	0.20563	-0.43335	0.31006	0.82077	23.0	13111	100
2025-5-24 8:37:31.904	WT901BLE68(801231B9234C)	-0.631	0.647	-0.068	158.691	170.044	-77.454	-3.68	50.10	106.82	28.420	-24.206	10.976	0.20563	-0.43335	0.31006	0.82077	23.0	13111	100
2025-5-24 8:37:31.905	WT901BLE68(801231B9234C)	-0.504	0.748	-0.027	156.677	176.758	-48.462	-1.83	53.96	105.01	28.420	-24.206	10.976	0.20563	-0.43335	0.31006	0.82077	23.0	13111	100
2025-5-24 8:37:31.962	WT901BLE68(801231B9234C)	-0.365	0.639	-0.011	130.432	130.493	-20.264	0.55	57.32	104.25	28.420	-24.206	10.976	0.20563	-0.43335	0.31006	0.82077	23.0	13111	100
2025-5-24 8:37:31.963	WT901BLE68(801231B9234C)	0.002	0.609	-0.010	119.873	52.063	-0.793	3.47	59.23	104.36	28.420	-24.206	10.976	0.20563	-0.43335	0.31006	0.82077	23.0	13111	100
2025-5-24 8:37:31.992	WT901BLE68(801231B9234C)	0.420	0.533	-0.067	98.938	-17.944	19.104	6.68	59.49	105.10	28.420	-24.206	10.976	0.20563	-0.43335	0.31006	0.82077	23.0	13111	100
2025-5-24 8:37:31.992	WT901BLE68(801231B9234C)	0.644	0.722	-0.133	71.167	-31.311	26.550	9.88	58.91	106.20	28.420	-24.206	10.976	0.55899	-0.33069	0.36246	0.66837	23.0	13111	100
2025-5-24 8:37:32.24	WT901BLE68(801231B9234C)	0.557	0.672	-0.102	31.433	-7.202	28.137	12.58	58.39	107.46	28.420	-24.206	10.976	0.55899	-0.33069	0.36246	0.66837	23.0	13111	100
2025-5-24 8:37:32.24	WT901BLE68(801231B9234C)	0.188	0.629	-0.055	-14.404	44.434	50.110	15.26	58.43	109.64	28.420	-24.206	10.976	0.55899	-0.33069	0.36246	0.66837	23.0	13111	100
2025-5-24 8:37:32.82	WT901BLE68(801231B9234C)	-0.225	0.721	-0.106	-56.580	93.323	82.336	18.59	59.13	113.62	28.420	-24.206	10.976	0.55899	-0.33069	0.36246	0.66837	23.0	13111	100
2025-5-24 8:37:32.82	WT901BLE68(801231B9234C)	-0.865	0.996	-0.005	-126.465	65.735	121.704	22.18	59.46	119.14	28.420	-24.206	10.976	0.55899	-0.33069	0.36246	0.66837	23.0	13111	100
2025-5-24 8:37:32.115	WT901BLE68(801231B9234C)	-2.247	1.130	0.067	-209.412	20.142	146.179	24.31	58.46	124.96	28.420	-24.206	10.976	0.55899	-0.33069	0.36246	0.66837	23.0	13111	100
2025-5-24 8:37:32.115	WT901BLE68(801231B9234C)	-2.664	1.080	0.180	-260.254	37.842	164.307	24.94	57.28	130.65	28.420	-24.206	10.976	0.55899	-0.33069	0.36246	0.66837	23.0	13111	100
2025-5-24 8:37:32.143	WT901BLE68(801231B9234C)	-2.593	0.923	0.649	-195.618	-10.498	228.149	27.10	55.70	137.82	28.420	-24.206	10.976	0.55899	-0.33069	0.36246	0.66837	23.0	13111	100
2025-5-24 8:37:32.144	WT901BLE68(801231B9234C)	-2.646	1.223	0.829	-168.823	48.706	155.884	28.95	53.95	143.71	28.420	-24.206	10.976	0.55899	-0.33069	0.36246	0.66837	23.0	13111	100
2025-5-24 8:37:32.203	WT901BLE68(801231B9234C)	-2.242	0.699	0.838	-145.264	137.695	117.126	30.77	54.76	149.41	30.282	-19.404	10.486	0.55899	-0.33069	0.36246	0.66837	23.0	13111	100
2025-5-24 8:37:32.203	WT901BLE68(801231B9234C)	-2.041	0.247	0.504	-100.525	119.019	127.502	33.79	55.62	155.55	30.282	-19.404	10.486	0.55899	-0.33069	0.36246	0.66837	23.0	13111	100
2025-5-24 8:37:32.262	WT901BLE68(801231B9234C)	-1.665	-0.118	0.506	-93.933	87.708	124.023	36.72	55.95	161.36	30.282	-19.404	10.486	0.55899	-0.33069	0.36246	0.66837	23.0	13111	100
2025-5-24 8:37:32.262	WT901BLE68(801231B9234C)	-1.299	-0.254	0.461	-77.942	30.823	108.398	38.70	55.49	165.80	30.282	-19.404	10.486	0.55899	-0.33069	0.36246	0.66837	23.0	13111	100
2025-5-24 8:37:32.263	WT901BLE68(801231B9234C)	-0.924	-0.368	0.459	-75.256	-8.728	72.937	39.15	54.65	168.31	30.282	-19.404	10.486	0.55899	-0.33069	0.36246	0.66837	23.0	13111	100
2025-5-24 8:37:32.263	WT901BLE68(801231B9234C)	-0.523	-0.814	0.533	-103.821	-34.912	46.631	38.14	53.80	169.24	30.282	-19.404	10.486	0.55899	-0.33069	0.36246	0.66837	23.0	13111	100
2025-5-24 8:37:32.322	WT901BLE68(801231B9234C)	-0.208	-1.010	0.397	-64.453	-59.937	23.132	36.24	52.80	168.98	30.282	-19.404	10.486	0.55899	-0.33069	0.36246	0.66837	23.0	13111	100
2025-5-24 8:37:32.323	WT901BLE68(801231B9234C)	-0.076	-0.943	0.298	-37.231	-57.800	-8.728	34.04	52.06	167.79	30.282	-19.404	10.486	0.55899	-0.33069	0.36246	0.66837	23.0	13111	100
2025-5-24 8:37:32.353	WT901BLE68(801231B9234C)	0.099	-0.965	0.328	-13.855	-45.105	-58.960	31.54	51.97	165.59	30.282	-19.404	10.486	0.55899	-0.33069	0.36246	0.66837	23.0	13111	100
2025-5-24 8:37:32.354	WT901BLE68(801231B9234C)	0.112	-0.900	0.271	8.850	-36.865	-92.896	28.54	52.37	162.26	30.282	-19.404	10.486	0.55899	-0.33069	0.36246	0.66837	23.0	13111	100
2025-5-24 8:37:32.413	WT901BLE68(801231B9234C)	-0.064	-0.814	0.215	26.489	-25.940	-128.540	25.11	53.13	157.94	30.282	-19.404	10.486	0.55899	-0.33069	0.36246	0.66837	23.0	13111	100
2025-5-24 8:37:32.413	WT901BLE68(801231B9234C)	-0.206	-0.700	0.239	43.579	-35.278	-150.818	21.07	53.90	152.56	30.282	-19.404	10.486	0.28989	-0.38858	0.26724	0.83273	23.0	13111	100
2025-5-24 8:37:32.441	WT901BLE68(801231B9234C)	-0.299	-0.573	0.227	65.063	-73.364	-161.804	16.56	53.95	146.18	30.282	-19.404	10.486	0.28989	-0.38858	0.26724	0.83273	23.0	13111	100
2025-5-24 8:37:32.441	WT901BLE68(801231B9234C)	-0.793	-0.480	0.235	81.787	-91.125	-165.649	12.23	53.14	139.44	30.282	-19.404	10.486	0.28989	-0.38858	0.26724	0.83273	23.0	13111	100
2025-5-24 8:37:32.474	WT901BLE68(801231B9234C)	-2.506	-0.533	0.254	73.425	-69.275	-175.171	8.10	52.22	132.92	30.282	-19.404	10.486	0.28989	-0.38858	0.26724	0.83273	23.0	13111	100
2025-5-24 8:37:32.475	WT901BLE68(801231B9234C)	-3.285	-0.617	0.598	73.730	-0.854	-183.533	4.06	52.08	126.55	30.282	-19.404	10.486	0.28989	-0.38858	0.26724	0.83273	23.0	13111	100
2025-5-24 8:37:32.502	WT901BLE68(801231B9234C)	-3.322	-0.339	0.411	63.171	-187.744	-131.104	0.85	50.32	121.42	30.282	-19.404	10.486	0.28989	-0.38858	0.26724	0.83273	23.0	13111	100
2025-5-24 8:37:32.503	WT901BLE68(801231B9234C)	-3.063	0.406	0.319	75.378	-227.234	-153.442	-1.09	45.93	117.44	30.282	-19.404	10.486	0.28989	-0.38858	0.26724	0.83273	23.0	13111	100
2025-5-24 8:37:32.564	WT901BLE68(801231B9234C)	-1.955	1.053	0.395	7.446	-161.133	-190.857	-4.19	42.39	112.84	30.282	-19.404	10.486	0.28989	-0.38858	0.26724	0.83273	23.0	13111	100
2025-5-24 8:37:32.564	WT901BLE68(801231B9234C)	-1.501	1.678	0.264	70.374	-18.005	-138.489	-6.22	40.90	109.04	30.282	-19.404	10.486	0.28989	-0.38858	0.26724	0.83273	23.0	13111	100
2025-5-24 8:37:32.594	WT901BLE68(801231B9234C)	-1.181	0.684	0.276	24.719	124.451	-176.575	-8.68	42.53	104.89	30.282	-19.404	10.486	0.28989	-0.38858	0.26724	0.83273	23.0	13111	100
2025-5-24 8:37:32.595	WT901BLE68(801231B9234C)	-0.809	0.531	0.140	110.840	175.110	-128.662	-10.40	45.74	100.60	32.438	-14.700	0.686	0.28989	-0.38858	0.26724	0.83273	23.0	13111	100
2025-5-24 8:37:32.623	WT901BLE68(801231B9234C)	-0.610	0.725	0.107	131.592	190.735	-97.351	-10.77	49.47	96.95	32.438	-14.700	0.686	0.28989	-0.38858	0.26724	0.83273	23.0	13111	100
2025-5-24 8:37:32.623	WT901BLE68(801231B9234C)	-0.528	0.692	0.119	124.084	177.551	-68.298	-10.69	53.25	93.83	32.438	-14.700	0.686	0.28989	-0.38858	0.26724	0.83273	23.0	13111	100
2025-5-24 8:37:32.681	WT901BLE68(801231B9234C)	-0.224	0.666	0.156	123.047	114.807	-46.692	-9.93	56.17	91.51	32.438	-14.700	0.686	0.28989	-0.38858	0.26724	0.83273	23.0	13111	100
2025-5-24 8:37:32.682	WT901BLE68(801231B9234C)	0.189	0.733	0.153	112.488	29.297	-21.667	-8.20	57.53	90.29	32.438	-14.700	0.686	0.28989	-0.38858	0.26724	0.83273	23.0	13111	100
2025-5-24 8:37:32.711	WT901BLE68(801231B9234C)	0.620	1.011	0.058	98.877	-31.494	-0.854	-5.49	57.42	90.37	32.438	-14.700	0.686	0.28989	-0.38858	0.26724	0.83273	23.0	13111	100
2025-5-24 8:37:32.711	WT901BLE68(801231B9234C)	0.699	1.072	0.008	60.852	-42.053	14.526	-2.57	56.63	91.21	32.438	-14.700	0.686	0.28989	-0.38858	0.26724	0.83273	23.0	13111	100
2025-5-24 8:37:32.741	WT901BLE68(801231B9234C)	0.491	0.715	0.020	-17.578	-9.521	27.649	-0.54	56.07	92.48	32.438	-14.700	0.686	0.28989	-0.38858	0.26724	0.83273	23.0	13111	100
2025-5-24 8:37:32.742	WT901BLE68(801231B9234C)	0.203	0.376	-0.025	-48.096	41.443	77.759	1.57	56.27	95.16	32.438	-14.700	0.686	0.28989	-0.38858	0.26724	0.83273	23.0	13111	100
2025-5-24 8:37:32.803	WT901BLE68(801231B9234C)	-0.103	0.583	-0.033	-58.655	64.148	151.489	5.69	56.98	100.48	32.438	-14.700	0.686	0.28989	-0.38858	0.26724	0.83273	23.0	13111	100
2025-5-24 8:37:32.803	WT901BLE68(801231B9234C)	-0.884	0.895	0.136	-127.563	24.658	195.435	10.65	56.82	107.87	32.438	-14.700	0.686	0.28989	-0.38858	0.26724	0.83273	23.0	13111	100
2025-5-24 8:37:32.833	WT901BLE68(801231B9234C)	-2.678	1.020	0.274	-213.867	44.678	178.894	13.90	56.09	115.26	32.438	-14.700	0.686	0.51938	-0.33078	0.34128	0.71008	23.0	13111	100
2025-5-24 8:37:32.833	WT901BLE68(801231B9234C)	-2.843	0.792	0.304	-269.470	82.214	189.270	15.17	56.29	122.09	32.438	-14.700	0.686	0.51938	-0.33078	0.34128	0.71008	23.0	13111	100
2025-5-24 8:37:32.892	WT901BLE68(801231B9234C)	-2.782	0.654	0.474	-197.876	-47.974	272.888	18.30	54.94	130.57	32.438	-14.700	0.686	0.51938	-0.33078	0.34128	0.71008	23.0	13111	100
2025-5-24 8:37:32.892	WT901BLE68(801231B9234C)	-2.874	0.766	0.567	-190.613	39.673	177.917	20.59	53.28	137.62	32.438	-14.700	0.686	0.51938	-0.33078	0.34128	0.71008	23.0	13111	100
2025-5-24 8:37:32.922	WT901BLE68(801231B9234C)	-2.177	0.473	0.575	-170.471	89.905	137.329	21.67	53.96	143.22	32.438	-14.700	0.686	0.51938	-0.33078	0.34128	0.71008	23.0	13111	100
2025-5-24 8:37:32.922	WT901BLE68(801231B9234C)	-1.814	0.025	0.417	-133.240	87.280	140.259	23.56	54.59	149.02	32.438	-14.700	0.686	0.51938	-0.33078	0.34128	0.71008	23.0	13111	100
2025-5-24 8:37:32.952	WT901BLE68(801231B9234C)	-1.516	-0.260	0.347	-122.498	95.764	119.202	25.53	55.49	154.63	32.438	-14.700	0.686	0.51938	-0.33078	0.34128	0.71008	23.0	13111	100
2025-5-24 8:37:32.952	WT901BLE68(801231B9234C)	-1.220	-0.392	0.292	-108.643	67.688	93.384	27.05	56.22	159.41	32.438	-14.700	0.686	0.51938	-0.33078	0.34128	0.71008	23.0	13111	100
2025-5-24 8:37:32.983	WT901BLE68(801231B9234C)	-0.809	-0.779	0.286	-111.877	17.090	70.923	27.34	56.40	162.72	32.438	-14.700	0.686	0.51938	-0.33078	0.34128	0.71008	23.0	13111	100
2025-5-24 8:37:32.984	WT901BLE68(801231B9234C)	-0.509	-0.377	0.191	-101.501	-8.423	61.035	26.94	56.02	164.94	27.930	-28.420	5.978	0.51938	-0.33078	0.34128	0.71008	23.0	13111	100
2025-5-24 8:37:33.42	WT901BLE68(801231B9234C)	-0.316	-0.835	0.180	-81.604	-13.367	47.852	26.17	55.59	166.48	27.930	-28.420	5.978	0.51938	-0.33078	0.34128	0.71008	23.0	13111	100
2025-5-24 8:37:33.43	WT901BLE68(801231B9234C)	-0.148	-0.922	0.230	-54.749	-10.864	24.841	25.42	55.39	167.40	27.930	-28.420	5.978	0.51938	-0.33078	0.34128	0.71008	23.0	13111	100
2025-5-24 8:37:33.74	WT901BLE68(801231B9234C)	0.018	-0.940	0.263	-29.114	-28.259	-4.333	24.09	55.24	167.14	27.930	-28.420	5.978	0.51938	-0.33078	0.34128	0.71008	23.0	13111	100
2025-5-24 8:37:33.75	WT901BLE68(801231B9234C)	0.113	-0.930	0.288	-6.287	-62.073	-45.898	21.84	54.87	165.17	27.930	-28.420	5.978	0.51938	-0.33078	0.34128	0.71008	23.0	13111	100
2025-5-24 8:37:33.132	WT901BLE68(801231B9234C)	0.081	-0.843	0.244	13.977	-73.303	-81.787	18.62	54.23	161.56	27.930	-28.420	5.978	0.51938	-0.33078	0.34128	0.71008	23.0	13111	100
2025-5-24 8:37:33.133	WT901BLE68(801231B9234C)	-0.059	-0.754	0.229	42.236	-48.035	-108.765	15.25	53.88	157.16	27.930	-28.420	5.978	0.51938	-0.33078	0.34128	0.71008	23.0	13111	100
2025-5-24 8:37:33.164	WT901BLE68(801231B9234C)	-0.269	-0.653	0.264	74.768	-31.677	-131.287	11.95	53.90	152.12	27.930	-28.420	5.978	0.51938	-0.33078	0.34128	0.71008	23.0	13111	100
2025-5-24 8:37:33.164	WT901BLE68(801231B9234C)	-1.002	-0.598	0.273	102.722	-28.442	-146.545	8.79	53.88	146.54	27.930	-28.420	5.978	0.51938	-0.33078	0.34128	0.71008	23.0	13111	100
2025-5-24 8:37:33.194	WT901BLE68(801231B9234C)	-2.961	-0.638	0.319	101.440	-16.968	-168.701	5.59	53.90	140.56	27.930	-28.420	5.978	0.51938	-0.33078	0.34128	0.71008	23.0	13111	100
2025-5-24 8:37:33.194	WT901BLE68(801231B9234C)	-3.446	-0.862	0.742	113.647	-4.883	-175.049	2.26	54.11	134.13	27.930	-28.420	5.978	0.36597	-0.40445	0.19489	0.81509	23.0	13111	100
2025-5-24 8:37:33.251	WT901BLE68(801231B9234C)	-3.518	-0.408	0.633	117.493	-265.503	-129.639	0.15	51.05	129.12	27.930	-28.420	5.978	0.36597	-0.40445	0.19489	0.81509	23.0	13111	100
2025-5-24 8:37:33.252	WT901BLE68(801231B9234C)	-2.683	0.585	0.631	92.041	-311.218	-165.649	-1.18	45.07	124.83	27.930	-28.420	5.978	0.36597	-0.40445	0.19489	0.81509	23.0	13111	100
2025-5-24 8:37:33.281	WT901BLE68(801231B9234C)	-1.367	0.934	0.576	28.625	-251.038	-177.124	-3.85	39.62	120.42	27.930	-28.420	5.978	0.36597	-0.40445	0.19489	0.81509	23.0	13111	100
2025-5-24 8:37:33.281	WT901BLE68(801231B9234C)	-1.367	1.668	0.423	88.013	-33.813	-99.854	-4.31	37.39	117.98	27.930	-28.420	5.978	0.36597	-0.40445	0.19489	0.81509	23.0	13111	100
2025-5-24 8:37:33.342	WT901BLE68(801231B9234C)	-1.180	0.717	0.438	43.213	145.081	-178.040	-5.98	39.39	114.32	27.930	-28.420	5.978	0.36597	-0.40445	0.19489	0.81509	23.0	13111	100
2025-5-24 8:37:33.342	WT901BLE68(801231B9234C)	-0.639	0.677	0.193	121.155	180.908	-117.004	-6.84	43.02	110.60	27.930	-28.420	5.978	0.36597	-0.40445	0.19489	0.81509	23.0	13111	100
2025-5-24 8:37:33.403	WT901BLE68(801231B9234C)	-0.306	0.767	0.102	136.108	187.927	-86.731	-6.38	46.89	107.92	27.930	-28.420	5.978	0.36597	-0.40445	0.19489	0.81509	23.0	13111	100
2025-5-24 8:37:33.403	WT901BLE68(801231B9234C)	-0.242	0.764	0.066	128.723	202.576	-63.660	-5.59	51.09	105.64	27.930	-28.420	5.978	0.36597	-0.40445	0.19489	0.81509	23.0	13111	100
2025-5-24 8:37:33.404	WT901BLE68(801231B9234C)	-0.276	0.715	0.061	118.286	145.691	-37.292	-4.42	54.77	104.14	27.930	-28.420	5.978	0.36597	-0.40445	0.19489	0.81509	23.0	13111	100
2025-5-24 8:37:33.404	WT901BLE68(801231B9234C)	0.204	1.145	-0.059	91.064	37.170	-21.790	-2.66	56.51	103.38	35.574	-14.406	4.410	0.36597	-0.40445	0.19489	0.81509	23.0	13111	100
2025-5-24 8:37:33.433	WT901BLE68(801231B9234C)	0.678	0.927	-0.092	66.223	-53.772	9.094	-0.44	56.09	103.50	35.574	-14.406	4.410	0.36597	-0.40445	0.19489	0.81509	23.0	13111	100
2025-5-24 8:37:33.433	WT901BLE68(801231B9234C)	0.680	0.818	-0.139	26.672	-63.538	32.166	2.08	54.70	104.60	35.574	-14.406	4.410	0.36597	-0.40445	0.19489	0.81509	23.0	13111	100
2025-5-24 8:37:33.492	WT901BLE68(801231B9234C)	0.419	0.633	-0.151	-14.465	-4.883	50.354	4.27	53.81	106.27	35.574	-14.406	4.410	0.36597	-0.40445	0.19489	0.81509	23.0	13111	100
2025-5-24 8:37:33.492	WT901BLE68(801231B9234C)	0.113	0.558	-0.209	-36.682	72.510	98.389	7.06	54.18	109.43	35.574	-14.406	4.410	0.36597	-0.40445	0.19489	0.81509	23.0	13111	100
2025-5-24 8:37:33.521	WT901BLE68(801231B9234C)	-0.297	0.867	-0.097	-67.993	91.309	159.180	11.41	55.04	114.98	35.574	-14.406	4.410	0.36597	-0.40445	0.19489	0.81509	23.0	13111	100
2025-5-24 8:37:33.521	WT901BLE68(801231B9234C)	-1.396	1.015	0.064	-145.508	39.856	200.439	15.73	54.74	122.07	35.574	-14.406	4.410	0.36597	-0.40445	0.19489	0.81509	23.0	13111	100
2025-5-24 8:37:33.550	WT901BLE68(801231B9234C)	-3.247	1.108	0.147	-232.971	17.334	186.768	18.05	53.48	128.80	35.574	-14.406	4.410	0.36597	-0.40445	0.19489	0.81509	23.0	13111	100
2025-5-24 8:37:33.551	WT901BLE68(801231B9234C)	-2.462	0.664	0.445	-235.291	-23.010	233.948	18.72	51.82	134.95	35.574	-14.406	4.410	0.36597	-0.40445	0.19489	0.81509	23.0	13111	100
2025-5-24 8:37:33.642	WT901BLE68(801231B9234C)	-2.657	0.670	0.866	-136.292	-93.872	302.063	21.90	48.16	142.43	35.574	-14.406	4.410	0.36597	-0.40445	0.19489	0.81509	23.0	13111	100
2025-5-24 8:37:33.643	WT901BLE68(801231B9234C)	-2.842	1.078	1.011	-128.052	129.089	152.466	24.36	47.37	148.71	35.574	-14.406	4.410	0.36597	-0.40445	0.19489	0.81509	23.0	13111	100
2025-5-24 8:37:33.643	WT901BLE68(801231B9234C)	-2.053	0.388	0.777	-91.125	176.086	124.390	26.52	49.72	154.61	35.574	-14.406	4.410	0.28110	-0.35333	0.29797	0.84097	23.0	13111	100
2025-5-24 8:37:33.643	WT901BLE68(801231B9234C)	-1.605	0.062	0.559	-53.528	132.446	114.990	29.70	51.31	160.38	35.574	-14.406	4.410	0.28110	-0.35333	0.29797	0.84097	23.0	13111	100
2025-5-24 8:37:33.675	WT901BLE68(801231B9234C)	-1.197	-0.189	0.502	-50.171	101.624	99.854	32.46	52.38	165.44	35.574	-14.406	4.410	0.28110	-0.35333	0.29797	0.84097	23.0	13111	100
2025-5-24 8:37:33.675	WT901BLE68(801231B9234C)	-0.908	-0.249	0.400	-45.654	65.369	84.412	34.58	52.86	169.55	35.574	-14.406	4.410	0.28110	-0.35333	0.29797	0.84097	23.0	13111	100
2025-5-24 8:37:33.733	WT901BLE68(801231B9234C)	-0.463	-0.286	0.309	-53.711	45.532	63.965	35.79	53.09	172.64	35.574	-14.406	4.410	0.28110	-0.35333	0.29797	0.84097	23.0	13111	100
2025-5-24 8:37:33.733	WT901BLE68(801231B9234C)	-0.496	1.761	-0.067	-59.692	30.701	50.110	36.05	53.23	174.99	35.574	-14.406	4.410	0.28110	-0.35333	0.29797	0.84097	23.0	13111	100
2025-5-24 8:37:33.764	WT901BLE68(801231B9234C)	-0.323	-0.726	0.219	-70.007	22.034	50.110	35.97	53.27	176.94	35.574	-14.406	4.410	0.28110	-0.35333	0.29797	0.84097	23.0	13111	100
2025-5-24 8:37:33.764	WT901BLE68(801231B9234C)	-0.175	-0.829	0.244	-62.988	7.813	40.649	35.51	53.21	178.38	35.574	-14.406	4.410	0.28110	-0.35333	0.29797	0.84097	23.0	13111	100
2025-5-24 8:37:33.795	WT901BLE68(801231B9234C)	0.020	-1.085	0.364	-31.921	-20.752	9.033	34.50	53.07	178.64	35.574	-14.406	4.410	0.28110	-0.35333	0.29797	0.84097	23.0	13111	100
2025-5-24 8:37:33.795	WT901BLE68(801231B9234C)	0.051	-1.113	0.298	-6.287	-50.964	-30.762	32.48	52.89	177.03	23.226	-33.614	0.980	0.28110	-0.35333	0.29797	0.84097	23.0	13111	100
2025-5-24 8:37:33.851	WT901BLE68(801231B9234C)	-0.152	-0.885	0.291	12.878	-48.157	-72.937	29.78	52.86	174.02	23.226	-33.614	0.980	0.28110	-0.35333	0.29797	0.84097	23.0	13111	100
2025-5-24 8:37:33.852	WT901BLE68(801231B9234C)	-0.394	-0.690	0.284	36.377	-14.893	-115.601	26.63	53.56	170.00	23.226	-33.614	0.980	0.28110	-0.35333	0.29797	0.84097	23.0	13111	100
2025-5-24 8:37:33.882	WT901BLE68(801231B9234C)	-0.695	-0.636	0.324	69.214	-9.583	-153.564	23.12	54.76	164.88	23.226	-33.614	0.980	0.28110	-0.35333	0.29797	0.84097	23.0	13111	100
2025-5-24 8:37:33.882	WT901BLE68(801231B9234C)	-1.437	-0.611	0.311	113.220	-21.179	-179.749	19.22	55.79	158.41	23.226	-33.614	0.980	0.28110	-0.35333	0.29797	0.84097	23.0	13111	100
2025-5-24 8:37:33.942	WT901BLE68(801231B9234C)	-2.996	-0.583	0.388	119.385	-55.725	-200.439	14.82	56.29	150.86	23.226	-33.614	0.980	0.28110	-0.35333	0.29797	0.84097	23.0	13111	100
2025-5-24 8:37:33.943	WT901BLE68(801231B9234C)	-3.574	-0.470	0.723	104.004	-132.996	-218.384	9.43	55.50	142.29	23.226	-33.614	0.980	0.28110	-0.35333	0.29797	0.84097	23.0	13111	100
2025-5-24 8:37:33.973	WT901BLE68(801231B9234C)	-3.472	-0.171	0.787	94.849	-352.478	-176.208	4.90	50.68	134.75	23.226	-33.614	0.980	0.28110	-0.35333	0.29797	0.84097	23.0	13111	100
2025-5-24 8:37:33.973	WT901BLE68(801231B9234C)	-2.013	0.721	0.787	-1.953	-393.005	-207.764	0.82	43.38	128.63	23.226	-33.614	0.980	0.28110	-0.35333	0.29797	0.84097	23.0	13111	100
2025-5-24 8:37:34.3	WT901BLE68(801231B9234C)	-1.006	1.392	0.645	12.573	-260.620	-126.892	-2.51	37.19	124.35	23.226	-33.614	0.980	0.28110	-0.35333	0.29797	0.84097	23.0	13111	100
2025-5-24 8:37:34.3	WT901BLE68(801231B9234C)	-1.324	1.572	0.468	18.250	5.798	-125.549	-3.21	35.59	122.66	23.226	-33.614	0.980	0.46051	-0.28531	0.12375	0.83133	23.0	13111	100
2025-5-24 8:37:34.33	WT901BLE68(801231B9234C)	-1.218	0.412	0.428	32.410	178.284	-175.171	-5.86	38.32	118.57	23.226	-33.614	0.980	0.46051	-0.28531	0.12375	0.83133	23.0	13111	100
2025-5-24 8:37:34.34	WT901BLE68(801231B9234C)	-0.826	0.466	0.186	97.717	217.224	-109.131	-6.86	42.63	115.25	23.226	-33.614	0.980	0.46051	-0.28531	0.12375	0.83133	23.0	13111	100
2025-5-24 8:37:34.92	WT901BLE68(801231B9234C)	-0.585	0.475	0.116	116.516	216.736	-90.698	-7.00	47.12	112.55	23.226	-33.614	0.980	0.46051	-0.28531	0.12375	0.83133	23.0	13111	100
2025-5-24 8:37:34.92	WT901BLE68(801231B9234C)	-0.455	0.445	0.045	120.361	220.459	-69.824	-6.92	51.71	110.10	23.226	-33.614	0.980	0.46051	-0.28531	0.12375	0.83133	23.0	13111	100
2025-5-24 8:37:34.121	WT901BLE68(801231B9234C)	-0.298	0.353	-0.034	125.977	162.781	-47.974	-6.36	55.73	108.36	23.226	-33.614	0.980	0.46051	-0.28531	0.12375	0.83133	23.0	13111	100
2025-5-24 8:37:34.121	WT901BLE68(801231B9234C)	0.084	0.747	-0.165	121.521	56.335	-38.635	-5.11	57.95	107.22	23.226	-33.614	0.980	0.46051	-0.28531	0.12375	0.83133	23.0	13111	100
2025-5-24 8:37:34.151	WT901BLE68(801231B9234C)	0.522	0.960	-0.211	105.896	-44.983	-26.672	-3.24	57.96	106.66	23.226	-33.614	0.980	0.46051	-0.28531	0.12375	0.83133	23.0	13111	100
2025-5-24 8:37:34.151	WT901BLE68(801231B9234C)	0.509	0.892	-0.228	74.402	-63.049	-8.667	-1.01	56.79	106.52	23.226	-33.614	0.980	0.46051	-0.28531	0.12375	0.83133	23.0	13111	100
2025-5-24 8:37:34.212	WT901BLE68(801231B9234C)	0.145	0.695	-0.255	42.358	-23.865	-5.127	1.03	55.82	106.61	23.226	-33.614	0.980	0.46051	-0.28531	0.12375	0.83133	23.0	13111	100
2025-5-24 8:37:34.213	WT901BLE68(801231B9234C)	0.140	0.811	-0.223	6.958	31.921	30.945	3.11	55.85	107.41	23.226	-33.614	0.980	0.46051	-0.28531	0.12375	0.83133	23.0	13111	100
2025-5-24 8:37:34.244	WT901BLE68(801231B9234C)	-0.254	0.961	-0.057	-45.471	12.634	104.736	6.20	55.81	110.64	37.044	-20.286	6.664	0.46051	-0.28531	0.12375	0.83133	23.0	13111	100
2025-5-24 8:37:34.244	WT901BLE68(801231B9234C)	-1.644	0.915	0.077	-113.281	-0.732	147.827	9.39	55.03	115.58	37.044	-20.286	6.664	0.46051	-0.28531	0.12375	0.83133	23.0	13111	100
2025-5-24 8:37:34.274	WT901BLE68(801231B9234C)	-2.796	1.222	0.215	-204.895	17.517	131.165	11.21	54.23	120.77	37.044	-20.286	6.664	0.46051	-0.28531	0.12375	0.83133	23.0	13111	100
2025-5-24 8:37:34.274	WT901BLE68(801231B9234C)	-2.147	0.702	0.579	-220.825	48.279	202.820	11.88	54.17	126.41	37.044	-20.286	6.664	0.46051	-0.28531	0.12375	0.83133	23.0	13111	100
2025-5-24 8:37:34.332	WT901BLE68(801231B9234C)	-2.901	0.708	0.659	-167.419	77.454	215.332	15.55	53.93	134.63	37.044	-20.286	6.664	0.46051	-0.28531	0.12375	0.83133	23.0	13111	100
2025-5-24 8:37:34.332	WT901BLE68(801231B9234C)	-2.566	0.761	0.743	-174.622	207.764	112.549	17.85	56.48	141.33	37.044	-20.286	6.664	0.46051	-0.28531	0.12375	0.83133	23.0	13111	100
2025-5-24 8:37:34.362	WT901BLE68(801231B9234C)	-1.962	0.265	0.601	-131.470	157.104	133.057	20.87	59.30	148.41	37.044	-20.286	6.664	0.46051	-0.28531	0.12375	0.83133	23.0	13111	100
2025-5-24 8:37:34.362	WT901BLE68(801231B9234C)	-1.692	-0.116	0.450	-120.300	102.539	138.794	24.63	60.50	155.66	37.044	-20.286	6.664	0.46051	-0.28531	0.12375	0.83133	23.0	13111	100
2025-5-24 8:37:34.392	WT901BLE68(801231B9234C)	-1.493	-0.387	0.370	-115.479	73.181	136.597	28.03	60.92	162.50	37.044	-20.286	6.664	0.46051	-0.28531	0.12375	0.83133	23.0	13111	100
2025-5-24 8:37:34.392	WT901BLE68(801231B9234C)	-1.184	-0.808	0.344	-146.484	39.551	121.033	30.38	60.73	168.19	37.044	-20.286	6.664	0.46051	-0.28531	0.12375	0.83133	23.0	13111	100
2025-5-24 8:37:34.474	WT901BLE68(801231B9234C)	-0.853	-0.804	0.195	-100.220	2.197	91.736	31.23	60.08	172.02	37.044	-20.286	6.664	0.18295	-0.45999	0.26544	0.82727	23.0	13111	100
2025-5-24 8:37:34.474	WT901BLE68(801231B9234C)	-0.493	-0.585	0.134	-92.773	-16.663	82.031	31.31	59.23	174.69	37.044	-20.286	6.664	0.18295	-0.45999	0.26544	0.82727	23.0	13111	100
2025-5-24 8:37:34.482	WT901BLE68(801231B9234C)	-0.206	-0.718	0.113	-78.491	-19.592	74.524	31.10	58.33	176.79	37.044	-20.286	6.664	0.18295	-0.45999	0.26544	0.82727	23.0	13111	100
2025-5-24 8:37:34.483	WT901BLE68(801231B9234C)	0.042	-0.842	0.191	-57.617	-21.179	49.194	30.66	57.64	178.20	37.044	-20.286	6.664	0.18295	-0.45999	0.26544	0.82727	23.0	13111	100
2025-5-24 8:37:34.542	WT901BLE68(801231B9234C)	0.101	-1.031	0.247	-35.156	-41.321	4.700	29.28	57.16	178.04	37.044	-20.286	6.664	0.18295	-0.45999	0.26544	0.82727	23.0	13111	100
2025-5-24 8:37:34.543	WT901BLE68(801231B9234C)	0.001	-1.070	0.372	2.563	-58.838	-47.424	26.72	56.77	175.73	37.044	-20.286	6.664	0.18295	-0.45999	0.26544	0.82727	23.0	13111	100
2025-5-24 8:37:34.575	WT901BLE68(801231B9234C)	-0.066	-0.950	0.375	17.944	-56.274	-80.872	23.33	56.59	171.86	37.044	-20.286	6.664	0.18295	-0.45999	0.26544	0.82727	23.0	13111	100
2025-5-24 8:37:34.575	WT901BLE68(801231B9234C)	-0.249	-0.806	0.298	43.152	-62.073	-106.018	19.56	56.39	167.07	37.044	-20.286	6.664	0.18295	-0.45999	0.26544	0.82727	23.0	13111	100
2025-5-24 8:37:34.632	WT901BLE68(801231B9234C)	-0.620	-0.683	0.293	67.078	-81.116	-134.399	15.41	55.84	161.22	37.044	-20.286	6.664	0.18295	-0.45999	0.26544	0.82727	23.0	13111	100
2025-5-24 8:37:34.633	WT901BLE68(801231B9234C)	-1.732	-0.684	0.291	90.393	-81.238	-157.837	11.15	55.00	154.69	25.382	-39.592	0.098	0.18295	-0.45999	0.26544	0.82727	23.0	13111	100
2025-5-24 8:37:34.664	WT901BLE68(801231B9234C)	-3.066	-0.809	0.539	108.826	-48.706	-182.922	7.18	54.34	147.84	25.382	-39.592	0.098	0.18295	-0.45999	0.26544	0.82727	23.0	13111	100
2025-5-24 8:37:34.664	WT901BLE68(801231B9234C)	-3.304	-0.674	0.756	97.839	-116.882	-184.448	3.15	53.41	140.92	25.382	-39.592	0.098	0.18295	-0.45999	0.26544	0.82727	23.0	13111	100
2025-5-24 8:37:34.694	WT901BLE68(801231B9234C)	-3.077	0.021	0.675	113.464	-240.234	-162.170	0.42	49.39	135.29	25.382	-39.592	0.098	0.18295	-0.45999	0.26544	0.82727	23.0	13111	100
2025-5-24 8:37:34.694	WT901BLE68(801231B9234C)	-2.251	0.819	0.439	63.660	-242.249	-188.293	-1.89	44.87	130.17	25.382	-39.592	0.098	0.18295	-0.45999	0.26544	0.82727	23.0	13111	100
2025-5-24 8:37:34.751	WT901BLE68(801231B9234C)	-1.334	1.053	0.196	65.247	-154.663	-135.376	-3.98	41.00	126.23	25.382	-39.592	0.098	0.18295	-0.45999	0.26544	0.82727	23.0	13111	100
2025-5-24 8:37:34.752	WT901BLE68(801231B9234C)	-1.359	1.457	0.089	96.252	78.491	-115.234	-4.03	41.12	123.77	25.382	-39.592	0.098	0.18295	-0.45999	0.26544	0.82727	23.0	13111	100
2025-5-24 8:37:34.784	WT901BLE68(801231B9234C)	-1.082	0.708	0.134	84.473	208.191	-144.043	-5.42	44.80	120.02	25.382	-39.592	0.098	0.18295	-0.45999	0.26544	0.82727	23.0	13111	100
2025-5-24 8:37:34.784	WT901BLE68(801231B9234C)	-0.718	0.628	0.100	135.010	214.233	-93.933	-5.82	49.31	116.72	25.382	-39.592	0.098	0.18295	-0.45999	0.26544	0.82727	23.0	13111	100
2025-5-24 8:37:34.842	WT901BLE68(801231B9234C)	-0.607	0.465	0.073	141.174	211.365	-74.463	-5.52	53.79	114.19	25.382	-39.592	0.098	0.18295	-0.45999	0.26544	0.82727	23.0	13111	100
2025-5-24 8:37:34.842	WT901BLE68(801231B9234C)	-0.414	0.370	0.019	126.709	172.241	-46.143	-4.86	57.91	112.22	25.382	-39.592	0.098	0.47809	-0.42307	0.25928	0.72464	23.0	13111	100
2025-5-24 8:37:34.843	WT901BLE68(801231B9234C)	-0.039	0.744	-0.113	130.859	75.500	-21.729	-3.24	60.45	111.19	25.382	-39.592	0.098	0.47809	-0.42307	0.25928	0.72464	23.0	13111	100
2025-5-24 8:37:34.843	WT901BLE68(801231B9234C)	0.409	0.879	-0.183	107.727	-22.156	-10.864	-0.76	60.96	111.20	25.382	-39.592	0.098	0.47809	-0.42307	0.25928	0.72464	23.0	13111	100
2025-5-24 8:37:34.903	WT901BLE68(801231B9234C)	0.659	0.978	-0.104	78.125	-65.979	-21.301	1.31	60.01	110.93	25.382	-39.592	0.098	0.47809	-0.42307	0.25928	0.72464	23.0	13111	100
2025-5-24 8:37:34.903	WT901BLE68(801231B9234C)	0.410	0.800	-0.019	39.246	-43.152	-18.921	2.76	58.89	110.46	25.382	-39.592	0.098	0.47809	-0.42307	0.25928	0.72464	23.0	13111	100
2025-5-24 8:37:34.931	WT901BLE68(801231B9234C)	0.060	0.623	-0.008	-1.953	0.793	-6.165	3.83	58.40	110.43	25.382	-39.592	0.098	0.47809	-0.42307	0.25928	0.72464	23.0	13111	100
2025-5-24 8:37:34.932	WT901BLE68(801231B9234C)	-0.317	0.713	-0.129	-28.809	39.856	38.269	5.54	58.58	111.83	25.382	-39.592	0.098	0.47809	-0.42307	0.25928	0.72464	23.0	13111	100
2025-5-24 8:37:34.962	WT901BLE68(801231B9234C)	-0.853	1.048	-0.083	-118.103	41.382	90.698	7.87	58.90	115.38	25.382	-39.592	0.098	0.47809	-0.42307	0.25928	0.72464	23.0	13111	100
2025-5-24 8:37:34.962	WT901BLE68(801231B9234C)	-2.063	0.857	-0.078	-204.773	6.165	129.456	9.37	58.57	120.26	25.382	-39.592	0.098	0.47809	-0.42307	0.25928	0.72464	23.0	13111	100
2025-5-24 8:37:35.23	WT901BLE68(801231B9234C)	-2.610	0.799	0.059	-243.530	38.513	146.423	10.39	58.03	125.89	25.382	-39.592	0.098	0.47809	-0.42307	0.25928	0.72464	23.0	13111	100
2025-5-24 8:37:35.23	WT901BLE68(801231B9234C)	-2.631	0.638	0.385	-201.660	78.186	213.623	13.26	58.70	133.62	25.382	-39.592	0.098	0.47809	-0.42307	0.25928	0.72464	23.0	13111	100
2025-5-24 8:37:35.51	WT901BLE68(801231B9234C)	-2.765	0.937	0.521	-169.373	137.024	142.395	17.07	59.67	141.52	41.160	-23.226	12.740	0.47809	-0.42307	0.25928	0.72464	23.0	13111	100
2025-5-24 8:37:35.51	WT901BLE68(801231B9234C)	-2.353	0.626	0.548	-160.889	217.285	103.760	20.41	62.79	148.69	41.160	-23.226	12.740	0.47809	-0.42307	0.25928	0.72464	23.0	13111	100
2025-5-24 8:37:35.81	WT901BLE68(801231B9234C)	-2.105	0.062	0.293	-139.587	156.006	119.934	25.13	65.36	156.97	41.160	-23.226	12.740	0.47809	-0.42307	0.25928	0.72464	23.0	13111	100
2025-5-24 8:37:35.81	WT901BLE68(801231B9234C)	-1.708	-0.304	0.257	-129.272	75.806	126.648	29.73	66.19	164.90	41.160	-23.226	12.740	0.47809	-0.42307	0.25928	0.72464	23.0	13111	100
2025-5-24 8:37:35.142	WT901BLE68(801231B9234C)	-1.322	-0.431	0.211	-114.563	0.427	120.056	32.73	65.46	170.85	41.160	-23.226	12.740	0.47809	-0.42307	0.25928	0.72464	23.0	13111	100
2025-5-24 8:37:35.142	WT901BLE68(801231B9234C)	-0.827	-0.932	0.222	-125.854	-32.776	107.422	33.64	64.02	174.67	41.160	-23.226	12.740	0.47809	-0.42307	0.25928	0.72464	23.0	13111	100
2025-5-24 8:37:35.173	WT901BLE68(801231B9234C)	-0.596	-0.311	0.039	-107.361	-23.926	85.266	33.79	62.73	177.40	41.160	-23.226	12.740	0.47809	-0.42307	0.25928	0.72464	23.0	13111	100
2025-5-24 8:37:35.173	WT901BLE68(801231B9234C)	-0.385	-0.652	0.053	-100.647	-8.118	73.059	33.77	61.89	179.84	41.160	-23.226	12.740	0.47809	-0.42307	0.25928	0.72464	23.0	13111	100
2025-5-24 8:37:35.202	WT901BLE68(801231B9234C)	-0.154	-0.789	0.109	-80.261	-4.822	62.500	33.85	61.33	-177.94	41.160	-23.226	12.740	0.47809	-0.42307	0.25928	0.72464	23.0	13111	100
2025-5-24 8:37:35.202	WT901BLE68(801231B9234C)	0.057	-0.913	0.184	-62.378	-28.870	31.616	32.98	60.84	-177.10	41.160	-23.226	12.740	0.47809	-0.42307	0.25928	0.72464	23.0	13111	100
2025-5-24 8:37:35.262	WT901BLE68(801231B9234C)	0.103	-1.079	0.322	-23.071	-52.429	-19.287	30.78	60.43	-178.45	41.160	-23.226	12.740	0.12769	-0.48145	0.22244	0.83804	23.0	13111	100
2025-5-24 8:37:35.262	WT901BLE68(801231B9234C)	-0.004	-1.049	0.316	7.629	-52.246	-60.486	27.49	60.28	178.14	41.160	-23.226	12.740	0.12769	-0.48145	0.22244	0.83804	23.0	13111	100
2025-5-24 8:37:35.291	WT901BLE68(801231B9234C)	-0.181	-0.929	0.292	35.889	-35.645	-85.083	23.88	60.52	173.79	41.160	-23.226	12.740	0.12769	-0.48145	0.22244	0.83804	23.0	13111	100
2025-5-24 8:37:35.291	WT901BLE68(801231B9234C)	-0.462	-0.729	0.285	68.542	-50.781	-115.051	19.79	60.74	168.21	41.160	-23.226	12.740	0.12769	-0.48145	0.22244	0.83804	23.0	13111	100
2025-5-24 8:37:35.321	WT901BLE68(801231B9234C)	-1.158	-0.621	0.244	112.549	-63.110	-141.479	15.18	60.57	161.27	41.160	-23.226	12.740	0.12769	-0.48145	0.22244	0.83804	23.0	13111	100
2025-5-24 8:37:35.321	WT901BLE68(801231B9234C)	-2.591	-0.629	0.272	127.197	-50.964	-179.199	10.38	60.40	153.34	41.160	-23.226	12.740	0.12769	-0.48145	0.22244	0.83804	23.0	13111	100
2025-5-24 8:37:35.382	WT901BLE68(801231B9234C)	-3.542	-0.733	0.461	126.099	-68.726	-209.717	4.87	59.83	144.50	41.160	-23.226	12.740	0.12769	-0.48145	0.22244	0.83804	23.0	13111	100
2025-5-24 8:37:35.382	WT901BLE68(801231B9234C)	-3.309	-0.292	0.483	125.732	-223.816	-194.092	-0.28	57.00	136.00	41.160	-23.226	12.740	0.12769	-0.48145	0.22244	0.83804	23.0	13111	100
2025-5-24 8:37:35.411	WT901BLE68(801231B9234C)	-2.767	0.033	0.253	114.746	-264.221	-201.599	-3.49	51.80	129.56	41.160	-23.226	12.740	0.12769	-0.48145	0.22244	0.83804	23.0	13111	100
2025-5-24 8:37:35.412	WT901BLE68(801231B9234C)	-1.834	0.821	0.344	86.609	-206.970	-222.229	-6.49	47.26	123.49	41.160	-23.226	12.740	0.12769	-0.48145	0.22244	0.83804	23.0	13111	100
2025-5-24 8:37:35.441	WT901BLE68(801231B9234C)	-1.329	1.048	0.150	93.689	-93.445	-164.795	-8.40	44.27	118.90	41.160	-23.226	12.740	0.12769	-0.48145	0.22244	0.83804	23.0	13111	100
2025-5-24 8:37:35.441	WT901BLE68(801231B9234C)	-1.363	1.129	0.081	89.417	97.534	-156.372	-9.44	44.93	114.99	42.140	-27.146	3.332	0.12769	-0.48145	0.22244	0.83804	23.0	13111	100
2025-5-24 8:37:35.502	WT901BLE68(801231B9234C)	-0.951	0.581	0.111	101.685	158.508	-150.024	-11.51	47.72	110.08	42.140	-27.146	3.332	0.12769	-0.48145	0.22244	0.83804	23.0	13111	100
2025-5-24 8:37:35.503	WT901BLE68(801231B9234C)	-0.542	0.598	0.069	138.306	141.113	-95.398	-12.09	50.61	106.23	42.140	-27.146	3.332	0.12769	-0.48145	0.22244	0.83804	23.0	13111	100
2025-5-24 8:37:35.531	WT901BLE68(801231B9234C)	-0.253	0.534	0.037	126.709	141.479	-63.660	-11.77	53.46	103.30	42.140	-27.146	3.332	0.12769	-0.48145	0.22244	0.83804	23.0	13111	100
2025-5-24 8:37:35.531	WT901BLE68(801231B9234C)	-0.066	0.505	-0.014	125.977	130.981	-40.649	-10.90	56.34	100.98	42.140	-27.146	3.332	0.12769	-0.48145	0.22244	0.83804	23.0	13111	100
2025-5-24 8:37:35.561	WT901BLE68(801231B9234C)	0.255	0.813	-0.128	119.263	61.096	-17.029	-8.97	58.29	99.81	42.140	-27.146	3.332	0.12769	-0.48145	0.22244	0.83804	23.0	13111	100
2025-5-24 8:37:35.561	WT901BLE68(801231B9234C)	0.611	0.986	-0.168	97.168	-6.470	11.353	-5.92	58.78	100.03	42.140	-27.146	3.332	0.12769	-0.48145	0.22244	0.83804	23.0	13111	100
2025-5-24 8:37:35.622	WT901BLE68(801231B9234C)	0.551	0.905	-0.061	47.180	-34.668	17.456	-2.83	58.23	101.10	42.140	-27.146	3.332	0.12769	-0.48145	0.22244	0.83804	23.0	13111	100
2025-5-24 8:37:35.622	WT901BLE68(801231B9234C)	0.253	0.651	-0.001	-1.526	-6.104	26.245	-0.57	57.71	102.34	42.140	-27.146	3.332	0.12769	-0.48145	0.22244	0.83804	23.0	13111	100
2025-5-24 8:37:35.653	WT901BLE68(801231B9234C)	-0.105	0.580	-0.065	-37.170	37.109	69.153	1.91	57.84	104.86	42.140	-27.146	3.332	0.54306	-0.36841	0.30704	0.68918	23.0	13111	100
2025-5-24 8:37:35.653	WT901BLE68(801231B9234C)	-0.601	0.871	-0.130	-67.627	55.481	123.962	5.66	58.41	109.52	42.140	-27.146	3.332	0.54306	-0.36841	0.30704	0.68918	23.0	13111	100
2025-5-24 8:37:35.684	WT901BLE68(801231B9234C)	-1.701	1.115	-0.085	-153.381	6.470	151.733	9.30	58.17	115.59	42.140	-27.146	3.332	0.54306	-0.36841	0.30704	0.68918	23.0	13111	100
2025-5-24 8:37:35.684	WT901BLE68(801231B9234C)	-2.774	1.087	0.104	-261.047	-16.541	131.409	10.30	57.01	120.95	42.140	-27.146	3.332	0.54306	-0.36841	0.30704	0.68918	23.0	13111	100
2025-5-24 8:37:35.741	WT901BLE68(801231B9234C)	-2.177	0.529	0.391	-211.365	-0.793	231.140	11.81	56.04	127.64	42.140	-27.146	3.332	0.54306	-0.36841	0.30704	0.68918	23.0	13111	100
2025-5-24 8:37:35.742	WT901BLE68(801231B9234C)	-2.709	0.629	0.458	-183.472	47.852	223.938	15.80	55.06	136.10	42.140	-27.146	3.332	0.54306	-0.36841	0.30704	0.68918	23.0	13111	100
2025-5-24 8:37:35.774	WT901BLE68(801231B9234C)	-2.542	0.785	0.527	-172.607	198.730	116.760	18.35	57.09	142.73	42.140	-27.146	3.332	0.54306	-0.36841	0.30704	0.68918	23.0	13111	100
2025-5-24 8:37:35.774	WT901BLE68(801231B9234C)	-2.177	0.314	0.403	-145.325	184.143	132.019	21.69	60.12	149.89	42.140	-27.146	3.332	0.54306	-0.36841	0.30704	0.68918	23.0	13111	100
2025-5-24 8:37:35.804	WT901BLE68(801231B9234C)	-1.845	-0.134	0.281	-127.502	121.460	143.127	26.03	61.67	157.62	42.140	-27.146	3.332	0.54306	-0.36841	0.30704	0.68918	23.0	13111	100
2025-5-24 8:37:35.804	WT901BLE68(801231B9234C)	-1.561	-0.416	0.256	-112.488	78.369	142.090	30.19	62.12	164.97	42.140	-27.146	3.332	0.54306	-0.36841	0.30704	0.68918	23.0	13111	100
2025-5-24 8:37:35.862	WT901BLE68(801231B9234C)	-1.177	-0.887	0.290	-134.827	39.246	122.131	33.04	61.85	170.77	39.592	-31.654	14.602	0.54306	-0.36841	0.30704	0.68918	23.0	13111	100
2025-5-24 8:37:35.862	WT901BLE68(801231B9234C)	-0.772	-0.773	0.244	-88.623	1.404	85.632	34.25	61.17	174.39	39.592	-31.654	14.602	0.54306	-0.36841	0.30704	0.68918	23.0	13111	100
2025-5-24 8:37:35.891	WT901BLE68(801231B9234C)	-0.417	-0.491	0.217	-72.205	-13.000	75.500	34.76	60.35	176.82	39.592	-31.654	14.602	0.54306	-0.36841	0.30704	0.68918	23.0	13111	100
2025-5-24 8:37:35.891	WT901BLE68(801231B9234C)	-0.192	-0.500	0.137	-63.110	-19.348	71.228	34.84	59.49	178.66	39.592	-31.654	14.602	0.54306	-0.36841	0.30704	0.68918	23.0	13111	100
2025-5-24 8:37:35.951	WT901BLE68(801231B9234C)	-0.073	-0.635	0.140	-50.171	-18.799	53.589	34.74	58.80	-179.95	39.592	-31.654	14.602	0.54306	-0.36841	0.30704	0.68918	23.0	13111	100
2025-5-24 8:37:35.952	WT901BLE68(801231B9234C)	-0.043	-0.802	0.233	-24.536	-30.579	22.949	34.11	58.31	-179.63	39.592	-31.654	14.602	0.54306	-0.36841	0.30704	0.68918	23.0	13111	100
2025-5-24 8:37:35.981	WT901BLE68(801231B9234C)	-0.125	-0.906	0.281	-1.892	-47.363	-19.897	32.43	58.01	178.91	39.592	-31.654	14.602	0.54306	-0.36841	0.30704	0.68918	23.0	13111	100
2025-5-24 8:37:35.981	WT901BLE68(801231B9234C)	-0.353	-0.998	0.280	29.175	-44.373	-48.584	30.09	57.95	176.14	39.592	-31.654	14.602	0.54306	-0.36841	0.30704	0.68918	23.0	13111	100
2025-5-24 8:37:36.14	WT901BLE68(801231B9234C)	-0.500	-0.819	0.333	55.115	-38.757	-86.365	27.43	58.31	172.29	39.592	-31.654	14.602	0.54306	-0.36841	0.30704	0.68918	23.0	13111	100
2025-5-24 8:37:36.15	WT901BLE68(801231B9234C)	-0.639	-0.567	0.258	80.933	-71.594	-121.643	23.79	58.51	166.77	39.592	-31.654	14.602	0.54306	-0.36841	0.30704	0.68918	23.0	13111	100
2025-5-24 8:37:36.73	WT901BLE68(801231B9234C)	-1.304	-0.550	0.259	118.286	-89.905	-148.865	19.83	58.19	159.99	39.592	-31.654	14.602	0.26312	-0.43274	0.23117	0.83063	23.0	13111	100
2025-5-24 8:37:36.73	WT901BLE68(801231B9234C)	-2.689	-0.614	0.377	119.751	-102.051	-184.875	15.00	57.57	151.97	39.592	-31.654	14.602	0.26312	-0.43274	0.23117	0.83063	23.0	13111	100
2025-5-24 8:37:36.102	WT901BLE68(801231B9234C)	-3.114	-0.572	0.649	125.793	-105.530	-204.834	10.11	56.65	143.62	39.592	-31.654	14.602	0.26312	-0.43274	0.23117	0.83063	23.0	13111	100
2025-5-24 8:37:36.102	WT901BLE68(801231B9234C)	-3.153	-0.116	0.484	138.916	-244.568	-182.678	6.05	53.74	135.83	39.592	-31.654	14.602	0.26312	-0.43274	0.23117	0.83063	23.0	13111	100
2025-5-24 8:37:36.132	WT901BLE68(801231B9234C)	-2.626	0.603	0.390	110.657	-276.978	-208.740	2.99	48.83	128.96	39.592	-31.654	14.602	0.26312	-0.43274	0.23117	0.83063	23.0	13111	100
2025-5-24 8:37:36.132	WT901BLE68(801231B9234C)	-1.551	0.946	0.425	67.688	-222.900	-204.773	-0.46	44.35	122.70	39.592	-31.654	14.602	0.26312	-0.43274	0.23117	0.83063	23.0	13111	100
2025-5-24 8:37:36.221	WT901BLE68(801231B9234C)	-1.391	1.583	0.250	113.770	-42.175	-118.408	-1.23	42.33	119.09	39.592	-31.654	14.602	0.26312	-0.43274	0.23117	0.83063	23.0	13111	100
2025-5-24 8:37:36.221	WT901BLE68(801231B9234C)	-1.210	0.735	0.224	68.909	124.817	-166.199	-2.54	44.17	115.29	39.592	-31.654	14.602	0.26312	-0.43274	0.23117	0.83063	23.0	13111	100
2025-5-24 8:37:36.223	WT901BLE68(801231B9234C)	-0.825	0.529	0.088	120.117	161.072	-119.568	-3.42	47.54	111.52	39.592	-31.654	14.602	0.26312	-0.43274	0.23117	0.83063	23.0	13111	100
2025-5-24 8:37:36.223	WT901BLE68(801231B9234C)	-0.615	0.562	0.046	125.916	167.358	-89.905	-3.20	51.15	108.67	39.592	-31.654	14.602	0.26312	-0.43274	0.23117	0.83063	23.0	13111	100
