time	DeviceName	AccX(g)	AccY(g)	AccZ(g)	AsX(°/s)	AsY(°/s)	AsZ(°/s)	AngleX(°)	AngleY(°)	AngleZ(°)	HX(uT)	HY(uT)	HZ(uT)	Q0()	Q1()	Q2()	Q3()	Temperature(°C)	Version()	Battery level(%)
2025-5-25 10:27:46.726	WT901BLE68(801231B9234C)	-1.134	-0.280	0.021	26.978	13.855	-4.700	-105.85	78.60	-123.72	41.258	20.188	0.686	0.65350	0.05820	0.73853	-0.15497	25.9	13111	100
2025-5-25 10:27:46.726	WT901BLE68(801231B9234C)	-1.355	-0.309	-0.010	29.907	26.428	-0.793	-106.76	78.37	-125.14	41.258	20.188	0.686	0.65350	0.05820	0.73853	-0.15497	25.9	13111	100
2025-5-25 10:27:46.756	WT901BLE68(801231B9234C)	-1.607	-0.330	-0.156	31.616	37.781	4.883	-108.84	78.16	-127.82	41.258	20.188	0.686	0.65350	0.05820	0.73853	-0.15497	25.9	13111	100
2025-5-25 10:27:46.757	WT901BLE68(801231B9234C)	-1.612	-0.253	-0.264	36.072	32.471	12.085	-111.26	78.02	-130.97	39.886	21.952	-2.156	0.65350	0.05820	0.73853	-0.15497	25.9	13111	100
2025-5-25 10:27:46.784	WT901BLE68(801231B9234C)	-1.428	-0.174	-0.270	37.537	21.790	19.836	-113.12	78.14	-133.67	39.886	21.952	-2.156	0.65350	0.05820	0.73853	-0.15497	25.9	13111	100
2025-5-25 10:27:46.785	WT901BLE68(801231B9234C)	-1.222	-0.123	-0.236	36.743	19.104	20.874	-114.72	78.36	-136.11	39.886	21.952	-2.156	0.65350	0.05820	0.73853	-0.15497	25.9	13111	100
2025-5-25 10:27:46.844	WT901BLE68(801231B9234C)	-1.152	-0.105	-0.281	35.217	36.804	24.353	-117.32	78.52	-139.53	39.886	21.952	-2.156	0.65350	0.05820	0.73853	-0.15497	25.9	13111	100
2025-5-25 10:27:46.845	WT901BLE68(801231B9234C)	-1.259	-0.118	-0.346	36.621	61.279	29.968	-122.37	78.49	-145.48	39.886	21.952	-2.156	0.65350	0.05820	0.73853	-0.15497	25.9	13111	100
2025-5-25 10:27:46.874	WT901BLE68(801231B9234C)	-1.216	-0.162	-0.381	37.292	67.871	35.522	-128.58	78.26	-152.66	39.886	21.952	-2.156	0.65350	0.05820	0.73853	-0.15497	25.9	13111	100
2025-5-25 10:27:46.874	WT901BLE68(801231B9234C)	-1.034	-0.164	-0.342	36.743	49.011	37.170	-134.14	78.07	-159.20	39.886	21.952	-2.156	0.65350	0.05820	0.73853	-0.15497	25.9	13111	100
2025-5-25 10:27:46.911	WT901BLE68(801231B9234C)	-0.826	-0.104	-0.271	35.706	38.513	34.241	-138.35	77.95	-164.35	39.886	21.952	-2.156	0.65350	0.05820	0.73853	-0.15497	25.9	13111	100
2025-5-25 10:27:46.911	WT901BLE68(801231B9234C)	-0.698	-0.083	-0.173	34.424	42.847	29.541	-142.20	77.73	-169.11	39.886	21.952	-2.156	0.65350	0.05820	0.73853	-0.15497	25.9	13111	100
2025-5-25 10:27:46.965	WT901BLE68(801231B9234C)	-0.524	-0.076	-0.092	31.189	46.692	19.714	-145.59	77.27	-173.32	39.886	21.952	-2.156	0.65350	0.05820	0.73853	-0.15497	25.9	13111	100
2025-5-25 10:27:46.965	WT901BLE68(801231B9234C)	-0.377	-0.111	-0.100	36.560	49.988	17.090	-148.28	76.67	-176.85	39.886	21.952	-2.156	0.65350	0.05820	0.73853	-0.15497	25.9	13111	100
2025-5-25 10:27:46.993	WT901BLE68(801231B9234C)	-0.455	-0.190	-0.091	42.908	62.134	16.541	-150.79	75.86	179.67	39.886	21.952	-2.156	0.58978	0.15894	0.76474	-0.20486	25.9	13111	100
2025-5-25 10:27:46.994	WT901BLE68(801231B9234C)	-0.493	-0.302	-0.043	53.162	70.313	14.099	-153.08	74.80	176.18	39.886	21.952	-2.156	0.58978	0.15894	0.76474	-0.20486	25.9	13111	100
2025-5-25 10:27:47.24	WT901BLE68(801231B9234C)	-0.484	-0.264	0.022	65.735	56.824	15.808	-154.45	73.80	173.34	39.886	21.952	-2.156	0.58978	0.15894	0.76474	-0.20486	25.9	13111	100
2025-5-25 10:27:47.25	WT901BLE68(801231B9234C)	-0.451	-0.198	-0.005	69.702	45.166	8.667	-154.75	73.07	171.44	39.886	21.952	-2.156	0.58978	0.15894	0.76474	-0.20486	25.9	13111	100
2025-5-25 10:27:47.85	WT901BLE68(801231B9234C)	-0.477	-0.226	0.000	73.120	37.842	5.310	-154.32	72.44	170.30	39.886	21.952	-2.156	0.58978	0.15894	0.76474	-0.20486	25.9	13111	100
2025-5-25 10:27:47.85	WT901BLE68(801231B9234C)	-0.604	-0.245	-0.053	71.777	33.997	-1.038	-153.32	71.86	169.65	39.886	21.952	-2.156	0.58978	0.15894	0.76474	-0.20486	25.9	13111	100
2025-5-25 10:27:47.114	WT901BLE68(801231B9234C)	-0.793	-0.219	-0.038	74.219	26.917	0.549	-152.14	71.31	168.87	39.886	21.952	-2.156	0.58978	0.15894	0.76474	-0.20486	25.9	13111	100
2025-5-25 10:27:47.114	WT901BLE68(801231B9234C)	-0.793	-0.020	0.016	65.430	7.080	5.615	-150.89	71.16	168.76	39.886	21.952	-2.156	0.58978	0.15894	0.76474	-0.20486	25.9	13111	100
2025-5-25 10:27:47.147	WT901BLE68(801231B9234C)	-0.819	0.062	0.034	38.574	4.822	11.353	-150.28	71.34	168.98	39.886	21.952	-2.156	0.58978	0.15894	0.76474	-0.20486	25.9	13111	100
2025-5-25 10:27:47.147	WT901BLE68(801231B9234C)	-0.840	-0.017	-0.112	4.517	14.404	-4.517	-150.45	71.33	169.05	39.886	21.952	-2.156	0.58978	0.15894	0.76474	-0.20486	25.9	13111	100
2025-5-25 10:27:47.211	WT901BLE68(801231B9234C)	-1.098	0.094	-0.207	-11.841	60.303	3.540	-151.78	70.74	168.24	44.002	14.308	4.508	0.58978	0.15894	0.76474	-0.20486	25.9	13111	100
2025-5-25 10:27:47.211	WT901BLE68(801231B9234C)	-1.230	0.338	-0.282	-43.030	85.999	-0.244	-154.41	69.51	166.50	44.002	14.308	4.508	0.58978	0.15894	0.76474	-0.20486	25.9	13111	100
2025-5-25 10:27:47.234	WT901BLE68(801231B9234C)	-1.240	0.576	-0.226	-90.088	82.581	16.663	-158.26	68.15	164.24	44.002	14.308	4.508	0.58978	0.15894	0.76474	-0.20486	25.9	13111	100
2025-5-25 10:27:47.234	WT901BLE68(801231B9234C)	-1.036	0.780	-0.101	-144.287	42.908	31.921	-163.44	67.37	161.75	44.002	14.308	4.508	0.58978	0.15894	0.76474	-0.20486	25.9	13111	100
2025-5-25 10:27:47.265	WT901BLE68(801231B9234C)	-0.823	1.007	-0.321	-183.167	1.770	59.509	-169.82	67.38	158.93	44.002	14.308	4.508	0.58978	0.15894	0.76474	-0.20486	25.9	13111	100
2025-5-25 10:27:47.265	WT901BLE68(801231B9234C)	-0.749	1.060	-0.717	-203.552	-48.523	107.117	-178.66	68.28	154.09	44.002	14.308	4.508	0.58978	0.15894	0.76474	-0.20486	25.9	13111	100
2025-5-25 10:27:47.326	WT901BLE68(801231B9234C)	-0.736	1.250	-0.804	-198.669	-55.115	168.762	169.08	69.07	145.53	44.002	14.308	4.508	0.58978	0.15894	0.76474	-0.20486	25.9	13111	100
2025-5-25 10:27:47.326	WT901BLE68(801231B9234C)	-0.825	1.409	-0.735	-196.899	-76.843	204.834	153.86	68.97	133.63	44.002	14.308	4.508	0.58978	0.15894	0.76474	-0.20486	25.9	13111	100
2025-5-25 10:27:47.357	WT901BLE68(801231B9234C)	-0.940	1.538	-0.754	-201.355	-82.764	227.905	138.02	67.62	120.91	44.002	14.308	4.508	0.58978	0.15894	0.76474	-0.20486	25.9	13111	100
2025-5-25 10:27:47.357	WT901BLE68(801231B9234C)	-1.048	1.632	-0.752	-220.581	-59.204	241.089	124.20	64.77	110.54	44.002	14.308	4.508	0.58978	0.15894	0.76474	-0.20486	25.9	13111	100
2025-5-25 10:27:47.387	WT901BLE68(801231B9234C)	-1.575	1.657	-0.903	-229.492	2.197	257.690	114.14	60.40	104.33	44.002	14.308	4.508	0.58978	0.15894	0.76474	-0.20486	25.9	13111	100
2025-5-25 10:27:47.387	WT901BLE68(801231B9234C)	-2.188	1.639	-0.990	-240.417	47.546	259.094	107.55	55.03	102.07	44.002	14.308	4.508	0.61630	0.24365	0.72855	0.17297	25.9	13111	100
2025-5-25 10:27:47.445	WT901BLE68(801231B9234C)	-2.344	1.582	-1.099	-236.389	53.894	263.489	102.51	49.53	101.46	44.002	14.308	4.508	0.61630	0.24365	0.72855	0.17297	25.9	13111	100
2025-5-25 10:27:47.446	WT901BLE68(801231B9234C)	-2.155	1.304	-0.931	-226.074	29.419	263.916	97.99	44.04	101.13	44.002	14.308	4.508	0.61630	0.24365	0.72855	0.17297	25.9	13111	100
2025-5-25 10:27:47.473	WT901BLE68(801231B9234C)	-1.776	0.889	-0.626	-215.393	-3.723	228.638	93.51	39.29	100.46	44.002	14.308	4.508	0.61630	0.24365	0.72855	0.17297	25.9	13111	100
2025-5-25 10:27:47.474	WT901BLE68(801231B9234C)	-1.600	0.551	-0.422	-191.406	3.784	190.918	89.69	35.24	99.94	44.002	14.308	4.508	0.61630	0.24365	0.72855	0.17297	25.9	13111	100
2025-5-25 10:27:47.513	WT901BLE68(801231B9234C)	-1.375	0.285	-0.239	-161.926	39.978	140.991	87.01	32.22	100.17	44.002	14.308	4.508	0.61630	0.24365	0.72855	0.17297	25.9	13111	100
2025-5-25 10:27:47.513	WT901BLE68(801231B9234C)	-1.208	0.004	-0.093	-137.146	62.866	95.032	85.31	30.09	100.88	44.002	14.308	4.508	0.61630	0.24365	0.72855	0.17297	25.9	13111	100
2025-5-25 10:27:47.567	WT901BLE68(801231B9234C)	-1.046	-0.271	0.055	-119.324	64.758	52.307	84.15	28.80	101.61	44.002	14.308	4.508	0.61630	0.24365	0.72855	0.17297	25.9	13111	100
2025-5-25 10:27:47.567	WT901BLE68(801231B9234C)	-1.037	-0.571	0.062	-85.571	60.242	33.264	83.49	28.02	102.11	44.002	14.308	4.508	0.61630	0.24365	0.72855	0.17297	25.9	13111	100
2025-5-25 10:27:47.596	WT901BLE68(801231B9234C)	-1.051	-0.871	0.074	-73.120	26.855	15.808	82.63	27.71	102.59	38.514	-30.184	1.666	0.61630	0.24365	0.72855	0.17297	25.9	13111	100
2025-5-25 10:27:47.597	WT901BLE68(801231B9234C)	-0.838	-1.074	0.161	-48.523	11.047	9.583	80.90	27.56	103.85	38.514	-30.184	1.666	0.61630	0.24365	0.72855	0.17297	25.9	13111	100
2025-5-25 10:27:47.656	WT901BLE68(801231B9234C)	-0.822	-1.388	0.195	-19.531	-30.396	-49.988	79.21	28.20	104.16	38.514	-30.184	1.666	0.61630	0.24365	0.72855	0.17297	25.9	13111	100
2025-5-25 10:27:47.656	WT901BLE68(801231B9234C)	-0.949	-1.295	0.083	18.066	-39.795	-123.718	77.68	30.13	103.43	38.514	-30.184	1.666	0.61630	0.24365	0.72855	0.17297	25.9	13111	100
2025-5-25 10:27:47.684	WT901BLE68(801231B9234C)	-1.281	-1.028	-0.051	49.316	-44.495	-171.082	76.50	33.12	102.18	38.514	-30.184	1.666	0.61630	0.24365	0.72855	0.17297	25.9	13111	100
2025-5-25 10:27:47.684	WT901BLE68(801231B9234C)	-1.626	-0.791	-0.085	70.190	-75.684	-216.064	75.17	36.85	99.94	38.514	-30.184	1.666	0.61630	0.24365	0.72855	0.17297	25.9	13111	100
2025-5-25 10:27:47.714	WT901BLE68(801231B9234C)	-1.966	-0.496	-0.193	93.567	-117.371	-262.329	73.13	41.13	96.14	38.514	-30.184	1.666	0.61630	0.24365	0.72855	0.17297	25.9	13111	100
2025-5-25 10:27:47.714	WT901BLE68(801231B9234C)	-2.636	-0.080	-0.303	109.863	-174.927	-300.049	69.82	45.71	90.14	38.514	-30.184	1.666	0.61630	0.24365	0.72855	0.17297	25.9	13111	100
2025-5-25 10:27:47.774	WT901BLE68(801231B9234C)	-2.845	0.906	-0.537	104.309	-196.289	-265.259	64.54	49.66	81.88	38.514	-30.184	1.666	0.61630	0.24365	0.72855	0.17297	25.9	13111	100
2025-5-25 10:27:47.774	WT901BLE68(801231B9234C)	-2.660	1.177	-0.472	74.585	-150.635	-230.103	60.34	52.33	73.56	38.514	-30.184	1.666	0.61630	0.24365	0.72855	0.17297	25.9	13111	100
2025-5-25 10:27:47.812	WT901BLE68(801231B9234C)	-2.656	1.338	-0.300	74.524	-144.653	-274.414	55.83	55.11	64.39	38.514	-30.184	1.666	0.78421	0.13885	0.56332	0.21970	25.9	13111	100
2025-5-25 10:27:47.812	WT901BLE68(801231B9234C)	-2.482	1.833	-0.097	79.468	-133.240	-313.110	49.42	58.35	53.35	38.514	-30.184	1.666	0.78421	0.13885	0.56332	0.21970	25.9	13111	100
2025-5-25 10:27:47.834	WT901BLE68(801231B9234C)	-2.095	1.851	-0.029	59.631	-130.981	-319.702	40.68	61.18	40.56	38.514	-30.184	1.666	0.78421	0.13885	0.56332	0.21970	25.9	13111	100
2025-5-25 10:27:47.835	WT901BLE68(801231B9234C)	-1.403	1.996	0.037	53.894	-140.015	-291.748	30.42	62.64	26.92	38.514	-30.184	1.666	0.78421	0.13885	0.56332	0.21970	25.9	13111	100
2025-5-25 10:27:47.895	WT901BLE68(801231B9234C)	-0.687	1.948	-0.029	50.354	-134.766	-249.573	20.84	62.56	14.34	38.514	-30.184	1.666	0.78421	0.13885	0.56332	0.21970	25.9	13111	100
2025-5-25 10:27:47.895	WT901BLE68(801231B9234C)	-0.109	1.811	-0.061	58.167	-93.933	-197.815	13.82	61.93	4.70	38.514	-30.184	1.666	0.78421	0.13885	0.56332	0.21970	25.9	13111	100
2025-5-25 10:27:47.924	WT901BLE68(801231B9234C)	0.192	1.591	-0.061	75.500	-42.786	-148.987	9.83	61.61	-1.84	38.514	-30.184	1.666	0.78421	0.13885	0.56332	0.21970	25.9	13111	100
2025-5-25 10:27:47.924	WT901BLE68(801231B9234C)	0.436	1.299	-0.042	91.431	-2.869	-112.488	8.09	61.89	-6.19	38.514	-30.184	1.666	0.78421	0.13885	0.56332	0.21970	25.9	13111	100
2025-5-25 10:27:47.957	WT901BLE68(801231B9234C)	0.853	1.163	-0.151	88.501	-0.916	-72.693	7.99	62.36	-8.74	38.514	-30.184	1.666	0.78421	0.13885	0.56332	0.21970	25.9	13111	100
2025-5-25 10:27:47.957	WT901BLE68(801231B9234C)	1.006	1.057	-0.295	81.848	-11.963	-27.832	9.38	62.46	-9.39	38.514	-30.184	1.666	0.78421	0.13885	0.56332	0.21970	25.9	13111	100
2025-5-25 10:27:48.15	WT901BLE68(801231B9234C)	0.911	1.097	-0.157	72.998	2.502	19.104	12.42	62.45	-7.97	34.006	12.838	-22.442	0.78421	0.13885	0.56332	0.21970	25.9	13111	100
2025-5-25 10:27:48.15	WT901BLE68(801231B9234C)	0.784	0.983	-0.090	54.382	31.189	72.388	17.54	62.58	-3.95	34.006	12.838	-22.442	0.78421	0.13885	0.56332	0.21970	25.9	13111	100
2025-5-25 10:27:48.44	WT901BLE68(801231B9234C)	0.665	1.036	-0.102	34.851	52.551	139.221	25.01	62.44	3.08	34.006	12.838	-22.442	0.78421	0.13885	0.56332	0.21970	25.9	13111	100
2025-5-25 10:27:48.44	WT901BLE68(801231B9234C)	0.357	1.212	-0.144	5.798	68.420	207.886	34.07	61.34	12.61	34.006	12.838	-22.442	0.78421	0.13885	0.56332	0.21970	25.9	13111	100
2025-5-25 10:27:48.75	WT901BLE68(801231B9234C)	-0.331	1.351	-0.043	-36.682	84.900	260.010	43.39	59.05	23.41	34.006	12.838	-22.442	0.78421	0.13885	0.56332	0.21970	25.9	13111	100
2025-5-25 10:27:48.75	WT901BLE68(801231B9234C)	-1.599	1.682	-0.023	-75.012	114.807	293.945	51.58	55.59	34.19	34.006	12.838	-22.442	0.78421	0.13885	0.56332	0.21970	25.9	13111	100
2025-5-25 10:27:48.135	WT901BLE68(801231B9234C)	-2.370	2.299	-0.196	-135.315	139.648	327.026	57.63	51.54	44.27	34.006	12.838	-22.442	0.78421	0.13885	0.56332	0.21970	25.9	13111	100
2025-5-25 10:27:48.135	WT901BLE68(801231B9234C)	-2.458	1.832	0.220	-150.940	123.047	390.259	61.96	46.04	53.75	34.006	12.838	-22.442	0.78421	0.13885	0.56332	0.21970	25.9	13111	100
2025-5-25 10:27:48.166	WT901BLE68(801231B9234C)	-2.762	2.006	0.393	-146.973	107.788	386.353	64.37	39.73	61.07	34.006	12.838	-22.442	0.78421	0.13885	0.56332	0.21970	25.9	13111	100
2025-5-25 10:27:48.166	WT901BLE68(801231B9234C)	-2.968	2.038	0.468	-149.902	218.872	300.354	66.17	35.04	68.47	34.006	12.838	-22.442	0.78421	0.13885	0.56332	0.21970	25.9	13111	100
2025-5-25 10:27:48.197	WT901BLE68(801231B9234C)	-2.826	1.354	0.417	-144.592	202.087	254.150	67.32	31.77	75.49	34.006	12.838	-22.442	0.78421	0.13885	0.56332	0.21970	25.9	13111	100
2025-5-25 10:27:48.197	WT901BLE68(801231B9234C)	-2.705	0.906	0.258	-138.062	152.588	219.604	67.54	28.93	80.85	34.006	12.838	-22.442	0.69534	0.27988	0.50592	0.42673	25.9	13111	100
2025-5-25 10:27:48.255	WT901BLE68(801231B9234C)	-2.360	0.581	0.090	-123.962	118.652	201.111	67.23	26.29	84.91	34.006	12.838	-22.442	0.69534	0.27988	0.50592	0.42673	25.9	13111	100
2025-5-25 10:27:48.256	WT901BLE68(801231B9234C)	-1.831	0.204	0.113	-105.957	92.224	164.795	66.80	24.02	87.96	34.006	12.838	-22.442	0.69534	0.27988	0.50592	0.42673	25.9	13111	100
2025-5-25 10:27:48.285	WT901BLE68(801231B9234C)	-1.313	-0.195	0.179	-87.524	68.848	108.459	66.38	22.45	89.78	34.006	12.838	-22.442	0.69534	0.27988	0.50592	0.42673	25.9	13111	100
2025-5-25 10:27:48.285	WT901BLE68(801231B9234C)	-0.908	-0.493	0.264	-73.669	52.002	58.838	66.05	21.58	90.57	34.006	12.838	-22.442	0.69534	0.27988	0.50592	0.42673	25.9	13111	100
2025-5-25 10:27:48.314	WT901BLE68(801231B9234C)	-0.730	-0.660	0.276	-42.236	58.044	24.109	65.34	21.36	91.85	34.006	12.838	-22.442	0.69534	0.27988	0.50592	0.42673	25.9	13111	100
2025-5-25 10:27:48.314	WT901BLE68(801231B9234C)	-0.614	-0.951	0.273	-44.128	53.345	-13.489	64.13	21.95	93.86	34.006	12.838	-22.442	0.69534	0.27988	0.50592	0.42673	25.9	13111	100
2025-5-25 10:27:48.375	WT901BLE68(801231B9234C)	-0.447	-1.069	0.336	-37.598	41.748	-45.837	62.81	23.04	95.36	34.006	12.838	-22.442	0.69534	0.27988	0.50592	0.42673	25.9	13111	100
2025-5-25 10:27:48.375	WT901BLE68(801231B9234C)	-0.348	-1.269	0.165	-24.109	16.113	-90.088	61.19	24.62	95.81	34.006	12.838	-22.442	0.69534	0.27988	0.50592	0.42673	25.9	13111	100
2025-5-25 10:27:48.412	WT901BLE68(801231B9234C)	-0.459	-1.262	0.016	8.362	34.180	-126.831	59.84	26.91	95.69	40.474	-25.774	-6.958	0.69534	0.27988	0.50592	0.42673	25.9	13111	100
2025-5-25 10:27:48.412	WT901BLE68(801231B9234C)	-0.864	-1.026	0.023	53.406	54.749	-167.175	59.17	30.05	95.40	40.474	-25.774	-6.958	0.69534	0.27988	0.50592	0.42673	25.9	13111	100
2025-5-25 10:27:48.435	WT901BLE68(801231B9234C)	-1.232	-0.708	0.142	92.041	28.015	-214.355	58.90	33.89	94.30	40.474	-25.774	-6.958	0.69534	0.27988	0.50592	0.42673	25.9	13111	100
2025-5-25 10:27:48.435	WT901BLE68(801231B9234C)	-1.481	-0.376	0.169	110.352	-40.405	-246.582	58.02	37.81	91.38	40.474	-25.774	-6.958	0.69534	0.27988	0.50592	0.42673	25.9	13111	100
2025-5-25 10:27:48.495	WT901BLE68(801231B9234C)	-2.006	-0.143	0.132	108.826	-119.995	-254.517	55.72	41.08	86.27	40.474	-25.774	-6.958	0.69534	0.27988	0.50592	0.42673	25.9	13111	100
2025-5-25 10:27:48.495	WT901BLE68(801231B9234C)	-2.958	0.133	0.057	102.966	-156.006	-252.258	52.10	43.49	79.61	40.474	-25.774	-6.958	0.69534	0.27988	0.50592	0.42673	25.9	13111	100
2025-5-25 10:27:48.524	WT901BLE68(801231B9234C)	-3.695	0.532	0.009	91.003	-150.879	-226.196	47.91	45.25	72.65	40.474	-25.774	-6.958	0.69534	0.27988	0.50592	0.42673	25.9	13111	100
2025-5-25 10:27:48.524	WT901BLE68(801231B9234C)	-3.114	1.472	0.030	65.979	-194.702	-202.087	43.63	45.99	65.33	40.474	-25.774	-6.958	0.69534	0.27988	0.50592	0.42673	25.9	13111	100
2025-5-25 10:27:48.557	WT901BLE68(801231B9234C)	-2.130	1.765	0.238	51.758	-249.512	-235.779	38.91	45.51	55.58	40.474	-25.774	-6.958	0.69534	0.27988	0.50592	0.42673	25.9	13111	100
2025-5-25 10:27:48.557	WT901BLE68(801231B9234C)	-1.354	1.816	0.165	60.791	-208.923	-260.742	33.60	45.08	45.34	40.474	-25.774	-6.958	0.69534	0.27988	0.50592	0.42673	25.9	13111	100
2025-5-25 10:27:48.614	WT901BLE68(801231B9234C)	-1.165	1.583	0.005	76.172	-54.749	-223.450	30.13	45.94	37.67	40.474	-25.774	-6.958	0.87701	0.11142	0.43539	0.16965	25.9	13111	100
2025-5-25 10:27:48.615	WT901BLE68(801231B9234C)	-0.774	1.637	-0.042	118.713	59.692	-184.937	29.26	48.59	32.94	40.474	-25.774	-6.958	0.87701	0.11142	0.43539	0.16965	25.9	13111	100
2025-5-25 10:27:48.646	WT901BLE68(801231B9234C)	-0.286	1.448	-0.108	162.842	94.971	-134.583	30.62	51.81	30.27	40.474	-25.774	-6.958	0.87701	0.11142	0.43539	0.16965	25.9	13111	100
2025-5-25 10:27:48.646	WT901BLE68(801231B9234C)	-0.027	1.200	-0.144	192.383	89.172	-97.717	33.78	54.65	29.12	40.474	-25.774	-6.958	0.87701	0.11142	0.43539	0.16965	25.9	13111	100
2025-5-25 10:27:48.676	WT901BLE68(801231B9234C)	0.131	1.064	-0.107	195.618	67.688	-85.327	37.65	56.98	28.61	40.474	-25.774	-6.958	0.87701	0.11142	0.43539	0.16965	25.9	13111	100
2025-5-25 10:27:48.676	WT901BLE68(801231B9234C)	0.368	1.079	-0.131	172.058	19.653	-83.679	40.78	58.64	27.64	40.474	-25.774	-6.958	0.87701	0.11142	0.43539	0.16965	25.9	13111	100
2025-5-25 10:27:48.734	WT901BLE68(801231B9234C)	0.732	1.036	-0.258	166.016	-12.939	-90.637	42.53	59.60	25.68	40.474	-25.774	-6.958	0.87701	0.11142	0.43539	0.16965	25.9	13111	100
2025-5-25 10:27:48.734	WT901BLE68(801231B9234C)	0.946	1.086	-0.277	112.732	-39.063	-71.472	43.47	60.08	23.41	40.474	-25.774	-6.958	0.87701	0.11142	0.43539	0.16965	25.9	13111	100
2025-5-25 10:27:48.765	WT901BLE68(801231B9234C)	0.895	0.965	-0.246	77.209	-12.207	-18.311	44.82	60.00	22.63	40.474	-25.774	-6.958	0.87701	0.11142	0.43539	0.16965	25.9	13111	100
2025-5-25 10:27:48.766	WT901BLE68(801231B9234C)	0.825	0.905	-0.202	30.457	32.532	54.626	48.14	59.49	25.04	40.474	-25.774	-6.958	0.87701	0.11142	0.43539	0.16965	25.9	13111	100
2025-5-25 10:27:48.794	WT901BLE68(801231B9234C)	0.533	1.008	-0.260	-16.724	83.130	139.465	53.29	58.15	30.71	40.474	-25.774	-6.958	0.87701	0.11142	0.43539	0.16965	25.9	13111	100
2025-5-25 10:27:48.794	WT901BLE68(801231B9234C)	-0.028	1.165	-0.144	-65.491	104.126	201.965	58.81	55.60	38.18	37.730	8.036	-20.286	0.87701	0.11142	0.43539	0.16965	25.9	13111	100
2025-5-25 10:27:48.855	WT901BLE68(801231B9234C)	-1.660	1.282	0.124	-124.756	111.633	236.938	63.18	52.04	45.75	37.730	8.036	-20.286	0.87701	0.11142	0.43539	0.16965	25.9	13111	100
2025-5-25 10:27:48.856	WT901BLE68(801231B9234C)	-3.100	1.987	0.168	-226.013	78.796	233.765	64.42	47.97	52.00	37.730	8.036	-20.286	0.87701	0.11142	0.43539	0.16965	25.9	13111	100
2025-5-25 10:27:48.915	WT901BLE68(801231B9234C)	-2.675	1.740	0.561	-255.859	42.419	353.149	63.39	42.81	57.41	37.730	8.036	-20.286	0.87701	0.11142	0.43539	0.16965	25.9	13111	100
2025-5-25 10:27:48.915	WT901BLE68(801231B9234C)	-2.762	1.231	0.767	-149.658	-17.029	381.958	62.25	35.79	61.61	37.730	8.036	-20.286	0.87701	0.11142	0.43539	0.16965	25.9	13111	100
2025-5-25 10:27:48.915	WT901BLE68(801231B9234C)	-2.790	1.758	1.050	-174.927	177.185	254.395	62.25	31.60	67.06	37.730	8.036	-20.286	0.87701	0.11142	0.43539	0.16965	25.9	13111	100
2025-5-25 10:27:48.916	WT901BLE68(801231B9234C)	-2.497	0.828	0.836	-131.531	212.158	191.956	62.58	29.87	73.47	37.730	8.036	-20.286	0.87701	0.11142	0.43539	0.16965	25.9	13111	100
2025-5-25 10:27:48.974	WT901BLE68(801231B9234C)	-1.980	0.402	0.524	-117.432	171.143	137.634	62.95	29.05	78.63	37.730	8.036	-20.286	0.87701	0.11142	0.43539	0.16965	25.9	13111	100
2025-5-25 10:27:48.974	WT901BLE68(801231B9234C)	-1.529	0.094	0.269	-107.361	123.169	120.911	62.80	28.37	82.46	37.730	8.036	-20.286	0.87701	0.11142	0.43539	0.16965	25.9	13111	100
2025-5-25 10:27:49.11	WT901BLE68(801231B9234C)	-1.146	-0.157	0.130	-91.309	90.759	93.079	62.44	27.77	85.20	37.730	8.036	-20.286	0.87701	0.11142	0.43539	0.16965	25.9	13111	100
2025-5-25 10:27:49.12	WT901BLE68(801231B9234C)	-0.843	-0.340	0.079	-85.327	73.364	68.726	62.02	27.52	87.05	37.730	8.036	-20.286	0.68347	0.22693	0.49216	0.48892	25.9	13111	100
2025-5-25 10:27:49.95	WT901BLE68(801231B9234C)	-0.592	-0.535	0.050	-78.674	73.730	50.720	61.30	27.26	89.10	37.730	8.036	-20.286	0.68347	0.22693	0.49216	0.48892	25.9	13111	100
2025-5-25 10:27:49.95	WT901BLE68(801231B9234C)	-0.454	-0.766	0.112	-75.562	70.557	36.682	60.03	27.29	91.95	37.730	8.036	-20.286	0.68347	0.22693	0.49216	0.48892	25.9	13111	100
2025-5-25 10:27:49.96	WT901BLE68(801231B9234C)	-0.404	-1.163	0.179	-70.557	44.434	7.935	58.45	27.63	94.06	37.730	8.036	-20.286	0.68347	0.22693	0.49216	0.48892	25.9	13111	100
2025-5-25 10:27:49.96	WT901BLE68(801231B9234C)	-0.291	-1.427	0.159	-50.598	23.071	-27.832	56.68	28.30	95.16	37.730	8.036	-20.286	0.68347	0.22693	0.49216	0.48892	25.9	13111	100
2025-5-25 10:27:49.125	WT901BLE68(801231B9234C)	-0.311	-1.513	0.019	-11.597	23.804	-62.805	55.05	29.47	95.43	37.730	8.036	-20.286	0.68347	0.22693	0.49216	0.48892	25.9	13111	100
2025-5-25 10:27:49.125	WT901BLE68(801231B9234C)	-0.620	-1.267	-0.031	40.161	33.997	-98.083	54.11	31.24	95.26	37.730	8.036	-20.286	0.68347	0.22693	0.49216	0.48892	25.9	13111	100
2025-5-25 10:27:49.185	WT901BLE68(801231B9234C)	-1.223	-0.922	0.060	90.881	16.968	-143.982	53.80	33.65	94.29	37.730	8.036	-20.286	0.68347	0.22693	0.49216	0.48892	25.9	13111	100
2025-5-25 10:27:49.185	WT901BLE68(801231B9234C)	-1.858	-0.600	0.129	134.521	-39.612	-196.838	53.36	36.30	91.59	37.730	8.036	-20.286	0.68347	0.22693	0.49216	0.48892	25.9	13111	100
2025-5-25 10:27:49.213	WT901BLE68(801231B9234C)	-2.716	-0.233	0.171	133.057	-122.498	-249.878	51.80	38.94	86.61	45.178	-14.700	-3.234	0.68347	0.22693	0.49216	0.48892	25.9	13111	100
2025-5-25 10:27:49.213	WT901BLE68(801231B9234C)	-3.491	0.180	0.214	114.319	-210.388	-270.386	48.14	40.80	79.05	45.178	-14.700	-3.234	0.68347	0.22693	0.49216	0.48892	25.9	13111	100
2025-5-25 10:27:49.245	WT901BLE68(801231B9234C)	-3.978	0.748	0.377	73.425	-307.739	-226.929	42.88	40.57	70.03	45.178	-14.700	-3.234	0.68347	0.22693	0.49216	0.48892	25.9	13111	100
2025-5-25 10:27:49.245	WT901BLE68(801231B9234C)	-3.068	1.317	0.519	3.357	-372.986	-246.582	36.14	38.26	60.42	45.178	-14.700	-3.234	0.68347	0.22693	0.49216	0.48892	25.9	13111	100
2025-5-25 10:27:49.314	WT901BLE68(801231B9234C)	-1.896	1.875	0.631	13.855	-379.395	-273.926	30.41	34.96	48.80	45.178	-14.700	-3.234	0.68347	0.22693	0.49216	0.48892	25.9	13111	100
2025-5-25 10:27:49.314	WT901BLE68(801231B9234C)	-1.292	2.006	0.147	39.978	-171.265	-253.235	26.80	33.35	39.72	45.178	-14.700	-3.234	0.68347	0.22693	0.49216	0.48892	25.9	13111	100
2025-5-25 10:27:49.336	WT901BLE68(801231B9234C)	-0.949	1.831	-0.037	40.039	79.102	-173.218	25.34	35.34	34.94	45.178	-14.700	-3.234	0.68347	0.22693	0.49216	0.48892	25.9	13111	100
2025-5-25 10:27:49.336	WT901BLE68(801231B9234C)	-0.428	1.472	-0.119	105.835	208.008	-115.601	26.66	39.89	33.64	45.178	-14.700	-3.234	0.68347	0.22693	0.49216	0.48892	25.9	13111	100
2025-5-25 10:27:49.366	WT901BLE68(801231B9234C)	-0.133	1.160	0.017	174.622	254.395	-69.397	30.96	45.15	34.74	45.178	-14.700	-3.234	0.68347	0.22693	0.49216	0.48892	25.9	13111	100
2025-5-25 10:27:49.366	WT901BLE68(801231B9234C)	-0.065	1.034	0.169	176.208	220.276	-57.007	36.97	49.93	37.44	45.178	-14.700	-3.234	0.68347	0.22693	0.49216	0.48892	25.9	13111	100
2025-5-25 10:27:49.427	WT901BLE68(801231B9234C)	0.227	1.006	0.172	167.786	132.019	-73.853	42.56	53.47	39.58	45.178	-14.700	-3.234	0.83273	0.18240	0.51086	0.11053	25.9	13111	100
2025-5-25 10:27:49.427	WT901BLE68(801231B9234C)	0.690	1.005	0.096	143.005	-31.433	-70.251	45.19	54.83	38.72	45.178	-14.700	-3.234	0.83273	0.18240	0.51086	0.11053	25.9	13111	100
2025-5-25 10:27:49.457	WT901BLE68(801231B9234C)	1.089	0.922	-0.047	97.900	-118.896	-65.796	44.87	54.39	35.21	45.178	-14.700	-3.234	0.83273	0.18240	0.51086	0.11053	25.9	13111	100
2025-5-25 10:27:49.458	WT901BLE68(801231B9234C)	1.122	0.893	-0.199	87.036	-110.046	-40.771	44.34	53.29	31.83	45.178	-14.700	-3.234	0.83273	0.18240	0.51086	0.11053	25.9	13111	100
2025-5-25 10:27:49.696	WT901BLE68(801231B9234C)	1.131	0.820	-0.147	51.086	-37.598	44.861	45.43	51.85	31.14	45.178	-14.700	-3.234	0.83273	0.18240	0.51086	0.11053	25.9	13111	100
2025-5-25 10:27:49.696	WT901BLE68(801231B9234C)	0.854	0.940	-0.294	23.560	69.214	140.930	49.36	50.26	34.94	45.178	-14.700	-3.234	0.83273	0.18240	0.51086	0.11053	25.9	13111	100
2025-5-25 10:27:49.696	WT901BLE68(801231B9234C)	0.176	1.242	-0.402	-42.603	114.685	224.670	54.32	47.84	41.59	45.178	-14.700	-3.234	0.83273	0.18240	0.51086	0.11053	25.9	13111	100
2025-5-25 10:27:49.696	WT901BLE68(801231B9234C)	-1.092	1.347	-0.123	-94.177	144.348	279.663	58.76	44.25	49.41	45.178	-14.700	-3.234	0.83273	0.18240	0.51086	0.11053	25.9	13111	100
2025-5-25 10:27:49.697	WT901BLE68(801231B9234C)	-3.397	1.867	0.189	-189.331	161.438	274.963	61.09	40.15	57.11	45.178	-14.700	-3.234	0.83273	0.18240	0.51086	0.11053	25.9	13111	100
2025-5-25 10:27:49.697	WT901BLE68(801231B9234C)	-3.023	2.120	0.274	-266.541	222.900	318.237	61.44	36.86	65.03	45.178	-14.700	-3.234	0.83273	0.18240	0.51086	0.11053	25.9	13111	100
2025-5-25 10:27:49.697	WT901BLE68(801231B9234C)	-2.741	1.426	0.105	-177.795	117.676	355.835	61.54	31.96	72.58	45.178	-14.700	-3.234	0.83273	0.18240	0.51086	0.11053	25.9	13111	100
2025-5-25 10:27:49.697	WT901BLE68(801231B9234C)	-3.269	2.008	0.066	-190.491	275.879	266.052	62.20	28.58	79.91	45.178	-14.700	-3.234	0.83273	0.18240	0.51086	0.11053	25.9	13111	100
2025-5-25 10:27:49.697	WT901BLE68(801231B9234C)	-2.645	0.777	0.514	-159.058	212.158	135.376	62.13	27.91	86.80	45.178	-14.700	-3.234	0.83273	0.18240	0.51086	0.11053	25.9	13111	100
2025-5-25 10:27:49.697	WT901BLE68(801231B9234C)	-1.731	0.365	0.442	-131.897	26.062	93.323	60.91	27.17	89.25	45.178	-14.700	-3.234	0.83273	0.18240	0.51086	0.11053	25.9	13111	100
2025-5-25 10:27:49.785	WT901BLE68(801231B9234C)	-1.359	0.172	0.229	-121.643	-12.451	82.153	59.07	25.92	89.77	45.178	-14.700	-3.234	0.83273	0.18240	0.51086	0.11053	25.9	13111	100
2025-5-25 10:27:49.785	WT901BLE68(801231B9234C)	-1.113	-0.071	0.123	-94.971	-6.653	61.462	57.72	25.13	90.09	45.178	-14.700	-3.234	0.83273	0.18240	0.51086	0.11053	25.9	13111	100
2025-5-25 10:27:49.786	WT901BLE68(801231B9234C)	-0.783	-0.358	0.118	-83.496	-14.526	47.485	56.49	24.49	90.01	45.178	-14.700	-3.234	0.83273	0.18240	0.51086	0.11053	25.9	13111	100
2025-5-25 10:27:49.786	WT901BLE68(801231B9234C)	-0.568	-0.549	0.117	-75.806	-11.597	49.988	55.65	23.75	89.47	45.178	-14.700	-3.234	0.83273	0.18240	0.51086	0.11053	25.9	13111	100
2025-5-25 10:27:49.814	WT901BLE68(801231B9234C)	-0.440	-0.881	0.136	-71.411	-0.305	34.851	53.65	23.08	90.85	45.178	-14.700	-3.234	0.83273	0.18240	0.51086	0.11053	25.9	13111	100
2025-5-25 10:27:49.814	WT901BLE68(801231B9234C)	-0.383	-1.231	0.172	-62.988	18.433	6.775	51.77	23.10	92.13	45.178	-14.700	-3.234	0.83273	0.18240	0.51086	0.11053	25.9	13111	100
2025-5-25 10:27:49.814	WT901BLE68(801231B9234C)	-0.381	-1.681	0.149	-49.500	20.020	-29.175	49.89	23.72	93.02	45.178	-14.700	-3.234	0.83273	0.18240	0.51086	0.11053	25.9	13111	100
2025-5-25 10:27:49.814	WT901BLE68(801231B9234C)	-0.533	-1.798	0.018	-3.540	8.606	-93.689	48.10	25.02	92.76	45.178	-14.700	-3.234	0.68448	0.12692	0.42514	0.57840	25.9	13111	100
2025-5-25 10:27:49.843	WT901BLE68(801231B9234C)	-0.971	-1.601	0.092	67.322	5.371	-141.174	46.97	26.89	91.52	45.178	-14.700	-3.234	0.68448	0.12692	0.42514	0.57840	25.9	13111	100
2025-5-25 10:27:49.843	WT901BLE68(801231B9234C)	-1.427	-0.844	0.334	127.197	-22.583	-208.801	46.64	29.47	88.73	45.178	-14.700	-3.234	0.68448	0.12692	0.42514	0.57840	25.9	13111	100
2025-5-25 10:27:49.904	WT901BLE68(801231B9234C)	-2.084	-0.418	0.471	120.605	-99.121	-272.217	45.47	32.13	83.96	45.178	-14.700	-3.234	0.68448	0.12692	0.42514	0.57840	25.9	13111	100
2025-5-25 10:27:49.905	WT901BLE68(801231B9234C)	-3.244	-0.067	0.444	113.281	-171.692	-303.101	42.74	34.09	76.87	45.178	-14.700	-3.234	0.68448	0.12692	0.42514	0.57840	25.9	13111	100
2025-5-25 10:27:49.934	WT901BLE68(801231B9234C)	-3.862	0.302	0.878	72.144	-240.662	-286.682	38.87	34.90	68.80	45.178	-14.700	-3.234	0.68448	0.12692	0.42514	0.57840	25.9	13111	100
2025-5-25 10:27:49.934	WT901BLE68(801231B9234C)	-3.941	0.862	0.862	5.066	-379.639	-234.253	33.55	32.46	59.98	45.178	-14.700	-3.234	0.68448	0.12692	0.42514	0.57840	25.9	13111	100
2025-5-25 10:27:49.965	WT901BLE68(801231B9234C)	-2.263	1.544	1.072	-49.988	-426.392	-321.960	27.19	28.39	49.32	45.178	-14.700	-3.234	0.68448	0.12692	0.42514	0.57840	25.9	13111	100
2025-5-25 10:27:49.965	WT901BLE68(801231B9234C)	-1.243	2.167	0.492	10.559	-320.374	-229.126	23.58	24.11	39.79	45.178	-14.700	-3.234	0.68448	0.12692	0.42514	0.57840	25.9	13111	100
2025-5-25 10:27:50.25	WT901BLE68(801231B9234C)	-1.175	1.706	0.051	-54.077	-16.113	-162.231	21.38	23.68	34.44	45.178	-14.700	-3.234	0.68448	0.12692	0.42514	0.57840	25.9	13111	100
2025-5-25 10:27:50.25	WT901BLE68(801231B9234C)	-1.053	1.457	-0.118	-2.075	154.968	-104.919	20.53	27.01	32.42	45.178	-14.700	-3.234	0.68448	0.12692	0.42514	0.57840	25.9	13111	100
2025-5-25 10:27:50.57	WT901BLE68(801231B9234C)	-0.525	1.108	0.073	50.537	145.325	-69.946	21.45	30.82	31.83	29.498	10.486	-24.696	0.68448	0.12692	0.42514	0.57840	25.9	13111	100
2025-5-25 10:27:50.58	WT901BLE68(801231B9234C)	-0.025	0.777	0.275	105.469	115.662	-57.495	23.59	33.94	31.61	29.498	10.486	-24.696	0.68448	0.12692	0.42514	0.57840	25.9	13111	100
2025-5-25 10:27:50.87	WT901BLE68(801231B9234C)	0.529	0.918	0.276	102.905	39.307	-93.750	25.52	36.16	30.45	29.498	10.486	-24.696	0.68448	0.12692	0.42514	0.57840	25.9	13111	100
2025-5-25 10:27:50.88	WT901BLE68(801231B9234C)	1.007	0.849	0.010	93.140	-20.081	-128.357	26.37	37.38	27.86	29.498	10.486	-24.696	0.68448	0.12692	0.42514	0.57840	25.9	13111	100
2025-5-25 10:27:50.145	WT901BLE68(801231B9234C)	1.122	0.896	-0.412	80.017	-33.508	-124.939	26.67	38.14	24.76	29.498	10.486	-24.696	0.68448	0.12692	0.42514	0.57840	25.9	13111	100
2025-5-25 10:27:50.145	WT901BLE68(801231B9234C)	0.910	0.901	-0.718	105.103	-0.977	-92.896	27.50	38.86	22.51	29.498	10.486	-24.696	0.68448	0.12692	0.42514	0.57840	25.9	13111	100
2025-5-25 10:27:50.176	WT901BLE68(801231B9234C)	0.834	1.107	-0.602	88.379	23.804	32.837	30.29	39.26	22.80	29.498	10.486	-24.696	0.68448	0.12692	0.42514	0.57840	25.9	13111	100
2025-5-25 10:27:50.176	WT901BLE68(801231B9234C)	1.011	0.990	-0.314	69.580	62.622	156.555	34.79	38.61	26.54	29.498	10.486	-24.696	0.68448	0.12692	0.42514	0.57840	25.9	13111	100
2025-5-25 10:27:50.207	WT901BLE68(801231B9234C)	0.733	1.119	-0.159	54.260	95.520	256.653	40.29	36.81	32.77	29.498	10.486	-24.696	0.68448	0.12692	0.42514	0.57840	25.9	13111	100
2025-5-25 10:27:50.207	WT901BLE68(801231B9234C)	-0.504	1.214	-0.009	31.372	132.996	307.007	46.18	34.11	40.38	29.498	10.486	-24.696	0.86441	0.26480	0.37967	0.19598	25.9	13111	100
2025-5-25 10:27:50.265	WT901BLE68(801231B9234C)	-3.290	1.765	0.325	3.052	176.086	364.136	51.43	30.38	48.74	29.498	10.486	-24.696	0.86441	0.26480	0.37967	0.19598	25.9	13111	100
2025-5-25 10:27:50.265	WT901BLE68(801231B9234C)	-3.228	2.862	0.273	-177.307	183.472	336.304	53.62	27.09	56.79	29.498	10.486	-24.696	0.86441	0.26480	0.37967	0.19598	25.9	13111	100
2025-5-25 10:27:50.295	WT901BLE68(801231B9234C)	-3.335	1.659	0.961	-71.228	32.227	419.922	54.34	21.43	63.72	29.498	10.486	-24.696	0.86441	0.26480	0.37967	0.19598	25.9	13111	100
2025-5-25 10:27:50.295	WT901BLE68(801231B9234C)	-3.710	2.904	1.068	-104.736	272.339	215.393	55.62	18.16	70.16	29.498	10.486	-24.696	0.86441	0.26480	0.37967	0.19598	25.9	13111	100
2025-5-25 10:27:50.324	WT901BLE68(801231B9234C)	-2.335	0.885	1.029	-106.445	219.482	118.713	55.41	19.21	76.00	29.498	10.486	-24.696	0.86441	0.26480	0.37967	0.19598	25.9	13111	100
2025-5-25 10:27:50.324	WT901BLE68(801231B9234C)	-1.667	0.373	0.696	-38.757	138.672	112.366	55.87	19.22	79.60	29.498	10.486	-24.696	0.86441	0.26480	0.37967	0.19598	25.9	13111	100
2025-5-25 10:27:50.387	WT901BLE68(801231B9234C)	-1.348	-0.005	0.444	-47.302	147.766	91.553	56.25	19.45	82.72	29.498	10.486	-24.696	0.86441	0.26480	0.37967	0.19598	25.9	13111	100
2025-5-25 10:27:50.387	WT901BLE68(801231B9234C)	-1.122	-0.324	0.350	-50.232	154.358	67.017	56.73	20.24	85.84	29.498	10.486	-24.696	0.86441	0.26480	0.37967	0.19598	25.9	13111	100
2025-5-25 10:27:50.417	WT901BLE68(801231B9234C)	-0.900	-0.561	0.391	-60.486	125.183	48.157	56.99	21.24	88.30	29.498	10.486	-24.696	0.86441	0.26480	0.37967	0.19598	25.9	13111	100
2025-5-25 10:27:50.418	WT901BLE68(801231B9234C)	-0.604	-0.828	0.478	-82.031	77.271	35.278	55.73	21.72	91.51	41.748	-16.464	-9.310	0.86441	0.26480	0.37967	0.19598	25.9	13111	100
2025-5-25 10:27:50.447	WT901BLE68(801231B9234C)	-0.375	-1.007	0.476	-84.961	19.531	1.404	53.77	22.17	93.21	41.748	-16.464	-9.310	0.86441	0.26480	0.37967	0.19598	25.9	13111	100
2025-5-25 10:27:50.447	WT901BLE68(801231B9234C)	-0.262	-1.226	0.473	-88.257	-18.372	-24.902	51.23	22.54	93.64	41.748	-16.464	-9.310	0.86441	0.26480	0.37967	0.19598	25.9	13111	100
2025-5-25 10:27:50.505	WT901BLE68(801231B9234C)	-0.188	-1.418	0.330	-73.669	-23.376	-59.082	48.44	23.09	93.21	41.748	-16.464	-9.310	0.86441	0.26480	0.37967	0.19598	25.9	13111	100
2025-5-25 10:27:50.505	WT901BLE68(801231B9234C)	-0.234	-1.493	0.138	-44.373	-8.667	-88.989	45.86	24.14	92.31	41.748	-16.464	-9.310	0.86441	0.26480	0.37967	0.19598	25.9	13111	100
2025-5-25 10:27:50.534	WT901BLE68(801231B9234C)	-0.697	-1.217	0.181	20.386	5.188	-116.638	44.10	25.69	91.08	41.748	-16.464	-9.310	0.86441	0.26480	0.37967	0.19598	25.9	13111	100
2025-5-25 10:27:50.534	WT901BLE68(801231B9234C)	-1.541	-0.761	0.377	76.172	-3.357	-153.503	43.29	27.61	89.21	41.748	-16.464	-9.310	0.86441	0.26480	0.37967	0.19598	25.9	13111	100
2025-5-25 10:27:50.597	WT901BLE68(801231B9234C)	-2.574	-0.371	0.478	74.829	-64.880	-231.323	42.05	29.76	85.67	41.748	-16.464	-9.310	0.86441	0.26480	0.37967	0.19598	25.9	13111	100
2025-5-25 10:27:50.597	WT901BLE68(801231B9234C)	-3.367	0.001	0.523	73.486	-148.071	-271.057	39.39	31.39	79.70	41.748	-16.464	-9.310	0.86441	0.26480	0.37967	0.19598	25.9	13111	100
2025-5-25 10:27:50.627	WT901BLE68(801231B9234C)	-4.050	0.347	0.914	42.175	-259.460	-262.634	35.64	31.46	72.38	41.748	-16.464	-9.310	0.86441	0.26480	0.37967	0.19598	25.9	13111	100
2025-5-25 10:27:50.627	WT901BLE68(801231B9234C)	-3.972	1.104	0.974	-72.998	-382.202	-247.070	30.16	28.58	64.11	41.748	-16.464	-9.310	0.85938	0.09180	0.28482	0.41449	25.9	13111	100
2025-5-25 10:27:50.657	WT901BLE68(801231B9234C)	-1.802	5.334	1.021	-6.714	-469.238	-268.982	24.17	23.56	54.61	41.748	-16.464	-9.310	0.85938	0.09180	0.28482	0.41449	25.9	13111	100
2025-5-25 10:27:50.657	WT901BLE68(801231B9234C)	-0.944	2.180	0.075	50.842	-296.814	-214.905	22.36	18.90	46.12	41.748	-16.464	-9.310	0.85938	0.09180	0.28482	0.41449	25.9	13111	100
2025-5-25 10:27:50.715	WT901BLE68(801231B9234C)	-0.873	1.865	-0.039	-8.362	31.433	-163.574	21.54	19.08	41.51	41.748	-16.464	-9.310	0.85938	0.09180	0.28482	0.41449	25.9	13111	100
2025-5-25 10:27:50.715	WT901BLE68(801231B9234C)	-0.785	1.437	0.029	61.829	262.756	-126.221	22.21	24.07	40.05	41.748	-16.464	-9.310	0.85938	0.09180	0.28482	0.41449	25.9	13111	100
2025-5-25 10:27:50.744	WT901BLE68(801231B9234C)	-0.606	1.071	0.143	128.906	306.030	-92.468	25.08	30.80	40.44	41.748	-16.464	-9.310	0.85938	0.09180	0.28482	0.41449	25.9	13111	100
2025-5-25 10:27:50.744	WT901BLE68(801231B9234C)	-0.273	0.948	0.259	160.400	238.281	-79.468	29.30	36.64	41.53	41.748	-16.464	-9.310	0.85938	0.09180	0.28482	0.41449	25.9	13111	100
2025-5-25 10:27:50.774	WT901BLE68(801231B9234C)	0.315	0.964	0.188	157.471	84.717	-71.411	32.95	40.06	41.65	41.748	-16.464	-9.310	0.85938	0.09180	0.28482	0.41449	25.9	13111	100
2025-5-25 10:27:50.774	WT901BLE68(801231B9234C)	0.834	0.941	-0.007	131.836	-57.129	-65.125	35.17	40.79	40.07	41.748	-16.464	-9.310	0.85938	0.09180	0.28482	0.41449	25.9	13111	100
2025-5-25 10:27:50.836	WT901BLE68(801231B9234C)	1.210	0.865	-0.258	124.023	-99.182	-97.900	36.05	40.31	37.05	41.748	-16.464	-9.310	0.85938	0.09180	0.28482	0.41449	25.9	13111	100
2025-5-25 10:27:50.836	WT901BLE68(801231B9234C)	1.054	0.972	-0.442	118.042	-81.238	-74.341	37.07	39.91	34.14	41.748	-16.464	-9.310	0.85938	0.09180	0.28482	0.41449	25.9	13111	100
2025-5-25 10:27:50.864	WT901BLE68(801231B9234C)	0.792	0.969	-0.389	88.501	-22.156	22.888	39.22	39.15	33.52	33.026	13.622	-23.520	0.85938	0.09180	0.28482	0.41449	25.9	13111	100
2025-5-25 10:27:50.864	WT901BLE68(801231B9234C)	0.790	0.953	-0.289	61.096	41.565	136.719	42.70	37.88	36.13	33.026	13.622	-23.520	0.85938	0.09180	0.28482	0.41449	25.9	13111	100
2025-5-25 10:27:50.895	WT901BLE68(801231B9234C)	0.568	1.176	-0.280	6.958	65.002	248.657	46.82	35.36	41.25	33.026	13.622	-23.520	0.85938	0.09180	0.28482	0.41449	25.9	13111	100
2025-5-25 10:27:50.895	WT901BLE68(801231B9234C)	-0.633	1.195	-0.015	-36.316	93.506	298.096	50.30	31.63	47.48	33.026	13.622	-23.520	0.85938	0.09180	0.28482	0.41449	25.9	13111	100
2025-5-25 10:27:50.955	WT901BLE68(801231B9234C)	-3.508	1.837	0.394	-136.536	86.426	315.491	52.08	27.42	53.84	33.026	13.622	-23.520	0.85938	0.09180	0.28482	0.41449	25.9	13111	100
2025-5-25 10:27:50.955	WT901BLE68(801231B9234C)	-2.887	2.594	0.395	-237.305	69.397	344.177	50.81	23.10	59.45	33.026	13.622	-23.520	0.85938	0.09180	0.28482	0.41449	25.9	13111	100
2025-5-25 10:27:50.986	WT901BLE68(801231B9234C)	-2.766	1.257	1.288	-111.145	-18.921	397.217	49.58	17.22	64.87	33.026	13.622	-23.520	0.85938	0.09180	0.28482	0.41449	25.9	13111	100
2025-5-25 10:27:50.986	WT901BLE68(801231B9234C)	-2.854	2.325	1.080	-109.985	223.572	225.769	49.68	14.13	70.55	33.026	13.622	-23.520	0.85938	0.09180	0.28482	0.41449	25.9	13111	100
2025-5-25 10:27:51.17	WT901BLE68(801231B9234C)	-2.241	0.790	0.912	-109.009	324.646	158.447	49.27	15.80	77.37	33.026	13.622	-23.520	0.85938	0.09180	0.28482	0.41449	25.9	13111	100
2025-5-25 10:27:51.17	WT901BLE68(801231B9234C)	-1.732	0.241	0.619	-61.218	260.010	114.685	49.85	17.73	83.23	33.026	13.622	-23.520	0.70544	0.21951	0.38620	0.55215	25.9	13111	100
2025-5-25 10:27:51.75	WT901BLE68(801231B9234C)	-1.490	-0.022	0.490	-62.561	184.814	94.849	50.47	19.20	87.62	33.026	13.622	-23.520	0.70544	0.21951	0.38620	0.55215	25.9	13111	100
2025-5-25 10:27:51.75	WT901BLE68(801231B9234C)	-1.212	-0.270	0.438	-64.392	95.093	73.242	50.49	19.95	90.35	33.026	13.622	-23.520	0.70544	0.21951	0.38620	0.55215	25.9	13111	100
2025-5-25 10:27:51.104	WT901BLE68(801231B9234C)	-0.801	-0.393	0.394	-64.270	20.630	62.012	49.96	19.99	91.58	33.026	13.622	-23.520	0.70544	0.21951	0.38620	0.55215	25.9	13111	100
2025-5-25 10:27:51.104	WT901BLE68(801231B9234C)	-0.477	-0.659	0.382	-64.758	-2.686	51.697	48.80	19.68	92.58	33.026	13.622	-23.520	0.70544	0.21951	0.38620	0.55215	25.9	13111	100
2025-5-25 10:27:51.197	WT901BLE68(801231B9234C)	-0.326	-0.966	0.416	-63.538	-5.432	29.846	47.16	19.39	93.75	33.026	13.622	-23.520	0.70544	0.21951	0.38620	0.55215	25.9	13111	100
2025-5-25 10:27:51.198	WT901BLE68(801231B9234C)	-0.195	-1.288	0.469	-51.147	-7.690	5.371	45.43	19.36	94.54	33.026	13.622	-23.520	0.70544	0.21951	0.38620	0.55215	25.9	13111	100
2025-5-25 10:27:51.198	WT901BLE68(801231B9234C)	-0.120	-1.440	0.473	-31.494	-19.104	-35.156	43.74	19.64	94.66	33.026	13.622	-23.520	0.70544	0.21951	0.38620	0.55215	25.9	13111	100
2025-5-25 10:27:51.199	WT901BLE68(801231B9234C)	-0.306	-1.370	0.373	-10.803	-31.616	-78.735	42.02	20.21	93.73	33.026	13.622	-23.520	0.70544	0.21951	0.38620	0.55215	25.9	13111	100
2025-5-25 10:27:51.227	WT901BLE68(801231B9234C)	-0.660	-1.094	0.365	24.353	-20.935	-108.704	40.64	21.17	92.22	33.026	13.622	-23.520	0.70544	0.21951	0.38620	0.55215	25.9	13111	100
2025-5-25 10:27:51.227	WT901BLE68(801231B9234C)	-1.073	-0.738	0.461	50.659	-31.128	-155.823	39.58	22.55	89.98	43.414	-11.564	-9.604	0.70544	0.21951	0.38620	0.55215	25.9	13111	100
2025-5-25 10:27:51.257	WT901BLE68(801231B9234C)	-1.628	-0.456	0.489	56.946	-82.886	-213.623	38.16	24.02	86.27	43.414	-11.564	-9.604	0.70544	0.21951	0.38620	0.55215	25.9	13111	100
2025-5-25 10:27:51.257	WT901BLE68(801231B9234C)	-2.372	-0.229	0.345	61.951	-146.973	-255.432	36.06	24.97	80.81	43.414	-11.564	-9.604	0.70544	0.21951	0.38620	0.55215	25.9	13111	100
2025-5-25 10:27:51.315	WT901BLE68(801231B9234C)	-3.305	-0.142	0.533	53.528	-191.162	-253.601	33.50	25.09	74.52	43.414	-11.564	-9.604	0.70544	0.21951	0.38620	0.55215	25.9	13111	100
2025-5-25 10:27:51.315	WT901BLE68(801231B9234C)	-4.401	0.212	1.082	-19.409	-261.230	-242.798	30.06	23.85	67.94	43.414	-11.564	-9.604	0.70544	0.21951	0.38620	0.55215	25.9	13111	100
2025-5-25 10:27:51.344	WT901BLE68(801231B9234C)	-3.555	1.140	1.048	-138.855	-352.356	-258.484	24.46	20.57	60.96	43.414	-11.564	-9.604	0.70544	0.21951	0.38620	0.55215	25.9	13111	100
2025-5-25 10:27:51.344	WT901BLE68(801231B9234C)	-1.325	1.840	0.903	-117.126	-408.264	-263.306	20.04	15.66	51.83	43.414	-11.564	-9.604	0.70544	0.21951	0.38620	0.55215	25.9	13111	100
2025-5-25 10:27:51.376	WT901BLE68(801231B9234C)	-0.404	2.330	0.148	-88.501	-121.094	-124.268	17.98	12.37	46.41	43.414	-11.564	-9.604	0.70544	0.21951	0.38620	0.55215	25.9	13111	100
2025-5-25 10:27:51.376	WT901BLE68(801231B9234C)	-0.448	1.207	0.010	-104.919	207.031	-105.835	15.81	15.33	44.40	43.414	-11.564	-9.604	0.70544	0.21951	0.38620	0.55215	25.9	13111	100
2025-5-25 10:27:51.435	WT901BLE68(801231B9234C)	-0.706	0.795	-0.086	18.127	463.257	-104.553	15.87	23.55	44.13	43.414	-11.564	-9.604	0.70544	0.21951	0.38620	0.55215	25.9	13111	100
2025-5-25 10:27:51.436	WT901BLE68(801231B9234C)	-0.597	0.749	0.116	128.601	539.734	-99.731	18.88	34.52	45.24	43.414	-11.564	-9.604	0.70544	0.21951	0.38620	0.55215	25.9	13111	100
2025-5-25 10:27:51.467	WT901BLE68(801231B9234C)	-0.274	0.942	0.457	207.703	374.695	-71.960	24.11	43.60	47.22	43.414	-11.564	-9.604	0.86404	0.03833	0.40790	0.29230	25.9	13111	100
2025-5-25 10:27:51.467	WT901BLE68(801231B9234C)	0.523	1.266	0.513	247.131	78.613	-67.383	29.85	47.79	47.97	43.414	-11.564	-9.604	0.86404	0.03833	0.40790	0.29230	25.9	13111	100
2025-5-25 10:27:51.497	WT901BLE68(801231B9234C)	1.179	1.209	0.461	237.183	-145.020	-85.693	32.96	47.40	45.07	43.414	-11.564	-9.604	0.86404	0.03833	0.40790	0.29230	25.9	13111	100
2025-5-25 10:27:51.497	WT901BLE68(801231B9234C)	1.137	1.005	0.060	193.054	-268.127	-107.178	33.24	44.62	39.33	43.414	-11.564	-9.604	0.86404	0.03833	0.40790	0.29230	25.9	13111	100
2025-5-25 10:27:51.555	WT901BLE68(801231B9234C)	1.181	0.955	-0.359	217.285	-265.503	-93.323	33.87	41.12	33.32	43.414	-11.564	-9.604	0.86404	0.03833	0.40790	0.29230	25.9	13111	100
2025-5-25 10:27:51.555	WT901BLE68(801231B9234C)	1.602	1.403	-0.517	178.467	-80.872	35.095	36.80	38.39	31.03	43.414	-11.564	-9.604	0.86404	0.03833	0.40790	0.29230	25.9	13111	100
2025-5-25 10:27:51.584	WT901BLE68(801231B9234C)	1.184	1.178	-0.556	111.633	111.267	215.637	42.45	36.78	35.12	43.414	-11.564	-9.604	0.86404	0.03833	0.40790	0.29230	25.9	13111	100
2025-5-25 10:27:51.584	WT901BLE68(801231B9234C)	-1.371	1.375	-0.237	57.800	250.427	344.543	49.80	34.50	44.24	43.414	-11.564	-9.604	0.86404	0.03833	0.40790	0.29230	25.9	13111	100
2025-5-25 10:27:51.645	WT901BLE68(801231B9234C)	-6.021	2.673	0.555	-158.264	250.061	298.706	54.64	31.93	54.48	43.414	-11.564	-9.604	0.86404	0.03833	0.40790	0.29230	25.9	13111	100
2025-5-25 10:27:51.645	WT901BLE68(801231B9234C)	-3.040	1.732	1.332	-303.223	74.219	333.435	51.88	28.70	60.46	43.414	-11.564	-9.604	0.86404	0.03833	0.40790	0.29230	25.9	13111	100
2025-5-25 10:27:51.674	WT901BLE68(801231B9234C)	-3.353	1.342	1.159	-107.422	-130.676	363.831	50.50	21.60	64.07	36.652	5.292	-21.070	0.86404	0.03833	0.40790	0.29230	25.9	13111	100
2025-5-25 10:27:51.675	WT901BLE68(801231B9234C)	-2.660	1.889	1.144	-185.059	149.719	214.111	49.19	18.48	68.10	36.652	5.292	-21.070	0.86404	0.03833	0.40790	0.29230	25.9	13111	100
2025-5-25 10:27:51.705	WT901BLE68(801231B9234C)	-1.952	0.497	0.862	-127.991	229.004	171.936	48.14	18.72	73.68	36.652	5.292	-21.070	0.86404	0.03833	0.40790	0.29230	25.9	13111	100
2025-5-25 10:27:51.705	WT901BLE68(801231B9234C)	-1.616	0.106	0.539	-89.905	222.961	123.779	48.22	19.96	78.90	36.652	5.292	-21.070	0.86404	0.03833	0.40790	0.29230	25.9	13111	100
2025-5-25 10:27:51.734	WT901BLE68(801231B9234C)	-1.294	-0.189	0.391	-81.482	164.917	99.854	48.38	21.20	83.01	36.652	5.292	-21.070	0.86404	0.03833	0.40790	0.29230	25.9	13111	100
2025-5-25 10:27:51.734	WT901BLE68(801231B9234C)	-0.914	-0.364	0.382	-78.857	76.538	88.318	48.19	21.67	85.67	36.652	5.292	-21.070	0.86404	0.03833	0.40790	0.29230	25.9	13111	100
2025-5-25 10:27:51.797	WT901BLE68(801231B9234C)	-0.543	-0.512	0.395	-81.055	-5.676	70.129	47.34	21.29	86.72	36.652	5.292	-21.070	0.86404	0.03833	0.40790	0.29230	25.9	13111	100
2025-5-25 10:27:51.798	WT901BLE68(801231B9234C)	-0.306	-0.594	0.416	-95.093	-52.185	54.688	45.71	20.46	86.89	36.652	5.292	-21.070	0.86404	0.03833	0.40790	0.29230	25.9	13111	100
2025-5-25 10:27:51.827	WT901BLE68(801231B9234C)	-0.124	-0.793	0.479	-114.441	-85.876	40.466	42.98	19.17	87.00	36.652	5.292	-21.070	0.86404	0.03833	0.40790	0.29230	25.9	13111	100
2025-5-25 10:27:51.827	WT901BLE68(801231B9234C)	0.089	-1.112	0.610	-128.845	-104.492	13.672	39.58	17.68	86.69	36.652	5.292	-21.070	0.71411	0.14505	0.31982	0.60550	25.9	13111	100
2025-5-25 10:27:51.857	WT901BLE68(801231B9234C)	0.280	-1.311	0.267	-126.770	-107.727	-9.155	35.90	16.12	85.84	36.652	5.292	-21.070	0.71411	0.14505	0.31982	0.60550	25.9	13111	100
2025-5-25 10:27:51.857	WT901BLE68(801231B9234C)	0.015	-1.532	0.063	-120.850	-38.574	-23.987	32.27	15.28	85.29	36.652	5.292	-21.070	0.71411	0.14505	0.31982	0.60550	25.9	13111	100
2025-5-25 10:27:51.915	WT901BLE68(801231B9234C)	-0.666	-1.350	0.115	-65.002	54.382	-65.979	29.42	16.09	85.14	36.652	5.292	-21.070	0.71411	0.14505	0.31982	0.60550	25.9	13111	100
2025-5-25 10:27:51.915	WT901BLE68(801231B9234C)	-1.531	-1.107	0.379	-17.883	77.393	-132.080	27.47	18.33	84.34	36.652	5.292	-21.070	0.71411	0.14505	0.31982	0.60550	25.9	13111	100
2025-5-25 10:27:51.944	WT901BLE68(801231B9234C)	-2.210	-0.925	0.486	1.221	-7.751	-218.567	25.41	20.42	81.55	36.652	5.292	-21.070	0.71411	0.14505	0.31982	0.60550	25.9	13111	100
2025-5-25 10:27:51.944	WT901BLE68(801231B9234C)	-3.536	-0.504	0.618	5.737	-118.225	-259.583	22.70	20.93	76.49	36.652	5.292	-21.070	0.71411	0.14505	0.31982	0.60550	25.9	13111	100
2025-5-25 10:27:52.7	WT901BLE68(801231B9234C)	-3.641	-0.011	0.926	-16.357	-235.779	-256.348	19.53	19.40	70.58	36.652	5.292	-21.070	0.71411	0.14505	0.31982	0.60550	25.9	13111	100
2025-5-25 10:27:52.7	WT901BLE68(801231B9234C)	-3.047	0.557	1.053	-42.419	-365.417	-254.639	16.07	14.76	64.30	36.652	5.292	-21.070	0.71411	0.14505	0.31982	0.60550	25.9	13111	100
2025-5-25 10:27:52.37	WT901BLE68(801231B9234C)	-1.927	0.746	1.084	-20.569	-325.928	-306.519	14.23	9.65	56.23	36.652	5.292	-21.070	0.71411	0.14505	0.31982	0.60550	25.9	13111	100
2025-5-25 10:27:52.37	WT901BLE68(801231B9234C)	-1.632	1.635	0.937	45.593	-121.643	-303.772	14.27	7.66	48.21	31.360	10.584	-24.500	0.71411	0.14505	0.31982	0.60550	25.9	13111	100
2025-5-25 10:27:52.67	WT901BLE68(801231B9234C)	-1.120	2.313	0.772	26.794	101.807	-268.677	14.60	10.11	42.26	31.360	10.584	-24.500	0.71411	0.14505	0.31982	0.60550	25.9	13111	100
2025-5-25 10:27:52.67	WT901BLE68(801231B9234C)	-0.762	0.781	0.454	71.167	233.521	-198.547	15.13	15.51	38.59	31.360	10.584	-24.500	0.71411	0.14505	0.31982	0.60550	25.9	13111	100
2025-5-25 10:27:52.124	WT901BLE68(801231B9234C)	-0.393	1.084	0.199	144.409	258.301	-152.771	17.28	21.76	36.23	31.360	10.584	-24.500	0.71411	0.14505	0.31982	0.60550	25.9	13111	100
2025-5-25 10:27:52.125	WT901BLE68(801231B9234C)	-0.244	1.013	0.130	176.819	273.560	-125.671	20.66	28.09	35.15	31.360	10.584	-24.500	0.71411	0.14505	0.31982	0.60550	25.9	13111	100
2025-5-25 10:27:52.154	WT901BLE68(801231B9234C)	-0.126	1.180	0.054	185.852	240.540	-123.047	24.56	34.06	34.67	31.360	10.584	-24.500	0.71411	0.14505	0.31982	0.60550	25.9	13111	100
2025-5-25 10:27:52.155	WT901BLE68(801231B9234C)	0.192	1.412	-0.008	171.265	171.875	-123.901	28.24	38.90	34.14	31.360	10.584	-24.500	0.71411	0.14505	0.31982	0.60550	25.9	13111	100
2025-5-25 10:27:52.186	WT901BLE68(801231B9234C)	0.804	1.330	-0.089	140.564	83.496	-119.629	30.94	42.22	32.98	31.360	10.584	-24.500	0.71411	0.14505	0.31982	0.60550	25.9	13111	100
2025-5-25 10:27:52.186	WT901BLE68(801231B9234C)	0.821	1.235	-0.100	139.771	57.678	-93.994	33.48	44.37	31.84	31.360	10.584	-24.500	0.71411	0.14505	0.31982	0.60550	25.9	13111	100
2025-5-25 10:27:52.245	WT901BLE68(801231B9234C)	0.486	1.132	-0.200	89.111	45.349	-33.325	35.90	45.63	31.61	31.360	10.584	-24.500	0.71411	0.14505	0.31982	0.60550	25.9	13111	100
2025-5-25 10:27:52.245	WT901BLE68(801231B9234C)	0.488	1.316	-0.339	9.705	73.486	89.233	38.83	45.89	34.08	31.360	10.584	-24.500	0.71411	0.14505	0.31982	0.60550	25.9	13111	100
2025-5-25 10:27:52.277	WT901BLE68(801231B9234C)	0.199	1.279	-0.183	-69.031	84.106	228.333	42.59	44.30	39.95	31.360	10.584	-24.500	0.85474	0.20428	0.44241	0.17841	25.9	13111	100
2025-5-25 10:27:52.277	WT901BLE68(801231B9234C)	-1.472	1.090	0.079	-142.822	111.023	288.330	45.75	41.52	47.43	31.360	10.584	-24.500	0.85474	0.20428	0.44241	0.17841	25.9	13111	100
2025-5-25 10:27:52.307	WT901BLE68(801231B9234C)	-3.996	1.761	0.034	-216.614	166.260	334.167	48.00	38.41	56.01	31.360	10.584	-24.500	0.85474	0.20428	0.44241	0.17841	25.9	13111	100
2025-5-25 10:27:52.307	WT901BLE68(801231B9234C)	-3.661	1.445	0.609	-304.626	145.874	414.917	48.49	34.75	65.74	31.360	10.584	-24.500	0.85474	0.20428	0.44241	0.17841	25.9	13111	100
2025-5-25 10:27:52.364	WT901BLE68(801231B9234C)	-3.336	1.129	1.218	-152.039	-6.104	361.511	48.39	29.26	72.27	31.360	10.584	-24.500	0.85474	0.20428	0.44241	0.17841	25.9	13111	100
2025-5-25 10:27:52.364	WT901BLE68(801231B9234C)	-2.775	0.926	1.247	-171.082	55.176	223.633	47.49	25.93	76.66	31.360	10.584	-24.500	0.85474	0.20428	0.44241	0.17841	25.9	13111	100
2025-5-25 10:27:52.394	WT901BLE68(801231B9234C)	-2.138	0.260	0.800	-124.451	70.496	165.222	46.51	24.44	80.13	31.360	10.584	-24.500	0.85474	0.20428	0.44241	0.17841	25.9	13111	100
2025-5-25 10:27:52.394	WT901BLE68(801231B9234C)	-1.456	-0.152	0.513	-103.394	49.805	133.545	45.74	23.59	82.90	31.360	10.584	-24.500	0.85474	0.20428	0.44241	0.17841	25.9	13111	100
2025-5-25 10:27:52.424	WT901BLE68(801231B9234C)	-0.922	-0.395	0.357	-91.736	27.466	113.281	44.95	22.78	84.91	31.360	10.584	-24.500	0.85474	0.20428	0.44241	0.17841	25.9	13111	100
2025-5-25 10:27:52.424	WT901BLE68(801231B9234C)	-0.594	-0.604	0.331	-84.351	26.611	93.018	44.13	22.24	86.51	31.360	10.584	-24.500	0.85474	0.20428	0.44241	0.17841	25.9	13111	100
2025-5-25 10:27:52.490	WT901BLE68(801231B9234C)	-0.375	-0.855	0.314	-83.984	29.236	69.580	43.01	22.12	88.12	43.610	-6.664	-9.898	0.85474	0.20428	0.44241	0.17841	25.9	13111	100
2025-5-25 10:27:52.491	WT901BLE68(801231B9234C)	-0.186	-1.082	0.365	-88.257	22.827	42.847	41.18	22.13	90.00	43.610	-6.664	-9.898	0.85474	0.20428	0.44241	0.17841	25.9	13111	100
2025-5-25 10:27:52.517	WT901BLE68(801231B9234C)	-0.000	-1.291	0.287	-86.853	-4.028	13.306	38.91	22.16	91.14	43.610	-6.664	-9.898	0.85474	0.20428	0.44241	0.17841	25.9	13111	100
2025-5-25 10:27:52.517	WT901BLE68(801231B9234C)	0.109	-1.487	0.069	-80.811	-14.160	-24.170	36.32	22.24	91.35	43.610	-6.664	-9.898	0.85474	0.20428	0.44241	0.17841	25.9	13111	100
2025-5-25 10:27:52.547	WT901BLE68(801231B9234C)	-0.023	-1.608	-0.082	-51.575	-2.014	-65.308	33.73	22.79	90.79	43.610	-6.664	-9.898	0.85474	0.20428	0.44241	0.17841	25.9	13111	100
2025-5-25 10:27:52.547	WT901BLE68(801231B9234C)	-0.439	-1.438	0.044	19.348	15.015	-92.529	31.95	23.84	89.69	43.610	-6.664	-9.898	0.85474	0.20428	0.44241	0.17841	25.9	13111	100
2025-5-25 10:27:52.604	WT901BLE68(801231B9234C)	-1.094	-1.012	0.246	78.003	1.953	-129.150	31.24	25.11	87.88	43.610	-6.664	-9.898	0.85474	0.20428	0.44241	0.17841	25.9	13111	100
2025-5-25 10:27:52.604	WT901BLE68(801231B9234C)	-1.994	-0.703	0.428	91.614	-28.137	-183.594	30.65	26.43	84.87	43.610	-6.664	-9.898	0.85474	0.20428	0.44241	0.17841	25.9	13111	100
2025-5-25 10:27:52.635	WT901BLE68(801231B9234C)	-3.164	-0.526	0.471	74.951	-78.979	-241.211	29.00	27.57	80.21	43.610	-6.664	-9.898	0.85474	0.20428	0.44241	0.17841	25.9	13111	100
2025-5-25 10:27:52.635	WT901BLE68(801231B9234C)	-3.906	-0.217	0.671	78.979	-132.996	-239.563	26.89	28.00	74.71	43.610	-6.664	-9.898	0.85474	0.20428	0.44241	0.17841	25.9	13111	100
2025-5-25 10:27:52.664	WT901BLE68(801231B9234C)	-4.538	0.380	0.682	51.697	-173.157	-237.793	24.55	27.00	69.00	43.610	-6.664	-9.898	0.85474	0.20428	0.44241	0.17841	25.9	13111	100
2025-5-25 10:27:52.664	WT901BLE68(801231B9234C)	-3.313	0.858	0.918	4.272	-250.732	-318.787	20.69	25.33	62.03	43.610	-6.664	-9.898	0.85202	0.05109	0.26648	0.44760	25.9	13111	100
2025-5-25 10:27:52.724	WT901BLE68(801231B9234C)	-2.017	1.668	0.818	21.973	-255.249	-309.021	18.65	22.92	53.31	43.610	-6.664	-9.898	0.85202	0.05109	0.26648	0.44760	25.9	13111	100
2025-5-25 10:27:52.725	WT901BLE68(801231B9234C)	-1.028	1.962	0.116	29.968	-104.614	-231.018	17.32	21.82	46.24	43.610	-6.664	-9.898	0.85202	0.05109	0.26648	0.44760	25.9	13111	100
2025-5-25 10:27:52.754	WT901BLE68(801231B9234C)	-0.560	1.457	-0.146	36.621	100.281	-167.908	16.81	23.98	42.09	43.610	-6.664	-9.898	0.85202	0.05109	0.26648	0.44760	25.9	13111	100
2025-5-25 10:27:52.754	WT901BLE68(801231B9234C)	-0.334	1.283	-0.281	126.282	241.455	-102.722	18.59	28.89	40.53	43.610	-6.664	-9.898	0.85202	0.05109	0.26648	0.44760	25.9	13111	100
2025-5-25 10:27:52.784	WT901BLE68(801231B9234C)	-0.063	1.097	-0.030	162.781	269.470	-72.815	22.47	34.90	40.90	43.610	-6.664	-9.898	0.85202	0.05109	0.26648	0.44760	25.9	13111	100
2025-5-25 10:27:52.784	WT901BLE68(801231B9234C)	0.495	1.059	0.108	160.522	124.634	-64.087	26.32	39.17	41.20	43.610	-6.664	-9.898	0.85202	0.05109	0.26648	0.44760	25.9	13111	100
2025-5-25 10:27:52.845	WT901BLE68(801231B9234C)	0.918	1.210	-0.024	153.809	4.578	-49.011	29.75	40.65	40.66	43.610	-6.664	-9.898	0.85202	0.05109	0.26648	0.44760	25.9	13111	100
2025-5-25 10:27:52.845	WT901BLE68(801231B9234C)	1.091	1.227	-0.140	129.822	-42.847	-33.203	32.32	40.65	39.55	43.610	-6.664	-9.898	0.85202	0.05109	0.26648	0.44760	25.9	13111	100
2025-5-25 10:27:52.877	WT901BLE68(801231B9234C)	1.070	1.143	-0.269	137.085	-47.668	3.418	34.96	39.96	38.89	33.810	18.032	-19.698	0.85202	0.05109	0.26648	0.44760	25.9	13111	100
2025-5-25 10:27:52.877	WT901BLE68(801231B9234C)	0.884	1.131	-0.201	109.192	-18.555	82.825	38.41	38.56	39.78	33.810	18.032	-19.698	0.85202	0.05109	0.26648	0.44760	25.9	13111	100
2025-5-25 10:27:52.907	WT901BLE68(801231B9234C)	0.563	1.354	-0.133	74.402	94.421	171.326	42.99	37.24	43.61	33.810	18.032	-19.698	0.85202	0.05109	0.26648	0.44760	25.9	13111	100
2025-5-25 10:27:52.907	WT901BLE68(801231B9234C)	-0.003	1.579	-0.362	13.733	136.475	271.240	48.07	35.27	50.25	33.810	18.032	-19.698	0.85202	0.05109	0.26648	0.44760	25.9	13111	100
2025-5-25 10:27:52.965	WT901BLE68(801231B9234C)	-0.986	1.746	-0.395	-48.767	104.553	368.652	52.08	31.14	57.67	33.810	18.032	-19.698	0.85202	0.05109	0.26648	0.44760	25.9	13111	100
2025-5-25 10:27:52.965	WT901BLE68(801231B9234C)	-3.651	2.403	0.143	-143.127	139.038	392.395	53.82	25.81	65.22	33.810	18.032	-19.698	0.85202	0.05109	0.26648	0.44760	25.9	13111	100
2025-5-25 10:27:52.994	WT901BLE68(801231B9234C)	-4.119	2.839	0.576	-246.033	178.772	382.874	53.27	21.40	73.14	33.810	18.032	-19.698	0.85202	0.05109	0.26648	0.44760	25.9	13111	100
2025-5-25 10:27:52.994	WT901BLE68(801231B9234C)	-3.253	1.662	1.044	-152.161	37.231	387.451	51.58	16.48	79.65	33.810	18.032	-19.698	0.85202	0.05109	0.26648	0.44760	25.9	13111	100
2025-5-25 10:27:53.27	WT901BLE68(801231B9234C)	-2.771	1.772	1.065	-125.183	60.242	264.771	50.64	12.26	83.90	33.810	18.032	-19.698	0.85202	0.05109	0.26648	0.44760	25.9	13111	100
2025-5-25 10:27:53.27	WT901BLE68(801231B9234C)	-2.084	0.921	0.823	-112.122	102.173	187.256	49.36	10.52	87.70	33.810	18.032	-19.698	0.85202	0.05109	0.26648	0.44760	25.9	13111	100
2025-5-25 10:27:53.85	WT901BLE68(801231B9234C)	-1.649	0.394	0.461	-79.773	120.239	161.499	48.59	9.81	91.15	33.810	18.032	-19.698	0.64896	0.23172	0.34848	0.63531	25.9	13111	100
2025-5-25 10:27:53.86	WT901BLE68(801231B9234C)	-1.349	-0.014	0.309	-83.679	128.113	145.874	48.01	9.56	94.60	33.810	18.032	-19.698	0.64896	0.23172	0.34848	0.63531	25.9	13111	100
2025-5-25 10:27:53.114	WT901BLE68(801231B9234C)	-1.062	-0.320	0.259	-80.750	104.919	113.647	47.40	9.62	97.41	33.810	18.032	-19.698	0.64896	0.23172	0.34848	0.63531	25.9	13111	100
2025-5-25 10:27:53.114	WT901BLE68(801231B9234C)	-0.792	-0.503	0.244	-78.857	67.688	88.989	46.80	9.59	99.03	33.810	18.032	-19.698	0.64896	0.23172	0.34848	0.63531	25.9	13111	100
2025-5-25 10:27:53.144	WT901BLE68(801231B9234C)	-0.577	-0.809	0.294	-82.642	34.729	72.510	45.10	9.25	101.33	33.810	18.032	-19.698	0.64896	0.23172	0.34848	0.63531	25.9	13111	100
2025-5-25 10:27:53.144	WT901BLE68(801231B9234C)	-0.376	-1.089	0.328	-84.656	3.906	47.546	42.91	8.98	103.31	33.810	18.032	-19.698	0.64896	0.23172	0.34848	0.63531	25.9	13111	100
2025-5-25 10:27:53.205	WT901BLE68(801231B9234C)	-0.243	-1.392	0.318	-89.417	-20.935	14.526	40.47	8.74	104.36	33.810	18.032	-19.698	0.64896	0.23172	0.34848	0.63531	25.9	13111	100
2025-5-25 10:27:53.205	WT901BLE68(801231B9234C)	-0.353	-1.711	0.165	-83.374	-15.381	-29.419	37.86	8.89	104.56	33.810	18.032	-19.698	0.64896	0.23172	0.34848	0.63531	25.9	13111	100
2025-5-25 10:27:53.234	WT901BLE68(801231B9234C)	-1.023	-1.642	0.138	-40.588	15.320	-68.604	35.60	9.83	104.22	33.810	18.032	-19.698	0.64896	0.23172	0.34848	0.63531	25.9	13111	100
2025-5-25 10:27:53.234	WT901BLE68(801231B9234C)	-2.058	-1.111	0.347	12.451	53.345	-136.719	34.30	11.92	103.38	33.810	18.032	-19.698	0.64896	0.23172	0.34848	0.63531	25.9	13111	100
2025-5-25 10:27:53.265	WT901BLE68(801231B9234C)	-2.253	-0.810	0.608	14.282	9.460	-267.517	32.91	15.08	100.60	33.810	18.032	-19.698	0.64896	0.23172	0.34848	0.63531	25.9	13111	100
2025-5-25 10:27:53.265	WT901BLE68(801231B9234C)	-2.731	-0.340	0.434	51.147	-121.887	-344.971	30.92	17.47	94.56	40.964	-17.836	-10.976	0.64896	0.23172	0.34848	0.63531	25.9	13111	100
2025-5-25 10:27:53.325	WT901BLE68(801231B9234C)	-3.186	0.125	0.710	38.269	-186.890	-381.165	28.43	18.49	86.70	40.964	-17.836	-10.976	0.64896	0.23172	0.34848	0.63531	25.9	13111	100
2025-5-25 10:27:53.325	WT901BLE68(801231B9234C)	-3.622	0.446	0.854	-11.597	-242.004	-392.456	25.00	18.23	78.06	40.964	-17.836	-10.976	0.64896	0.23172	0.34848	0.63531	25.9	13111	100
2025-5-25 10:27:53.354	WT901BLE68(801231B9234C)	-2.842	0.801	0.914	-37.964	-342.041	-387.451	20.58	15.90	68.91	40.964	-17.836	-10.976	0.64896	0.23172	0.34848	0.63531	25.9	13111	100
2025-5-25 10:27:53.354	WT901BLE68(801231B9234C)	-2.195	1.479	0.940	19.409	-282.776	-376.648	18.59	12.60	58.73	40.964	-17.836	-10.976	0.64896	0.23172	0.34848	0.63531	25.9	13111	100
2025-5-25 10:27:53.417	WT901BLE68(801231B9234C)	-1.422	3.044	0.555	23.071	-90.088	-243.164	18.74	11.61	51.67	40.964	-17.836	-10.976	0.64896	0.23172	0.34848	0.63531	25.9	13111	100
2025-5-25 10:27:53.417	WT901BLE68(801231B9234C)	-1.182	1.708	0.292	22.156	143.738	-231.262	18.58	14.73	47.04	40.964	-17.836	-10.976	0.64896	0.23172	0.34848	0.63531	25.9	13111	100
2025-5-25 10:27:53.447	WT901BLE68(801231B9234C)	-0.640	1.466	0.074	103.271	234.558	-180.359	19.73	20.48	44.16	40.964	-17.836	-10.976	0.64896	0.23172	0.34848	0.63531	25.9	13111	100
2025-5-25 10:27:53.447	WT901BLE68(801231B9234C)	-0.252	1.217	-0.004	152.954	241.211	-137.573	22.49	26.50	42.77	40.964	-17.836	-10.976	0.89996	0.10883	0.30969	0.28671	25.9	13111	100
2025-5-25 10:27:53.477	WT901BLE68(801231B9234C)	0.295	1.129	-0.002	147.644	141.602	-108.337	25.68	31.17	41.95	40.964	-17.836	-10.976	0.89996	0.10883	0.30969	0.28671	25.9	13111	100
2025-5-25 10:27:53.477	WT901BLE68(801231B9234C)	0.927	1.181	-0.163	136.902	7.446	-74.890	28.33	33.17	40.63	40.964	-17.836	-10.976	0.89996	0.10883	0.30969	0.28671	25.9	13111	100
2025-5-25 10:27:53.535	WT901BLE68(801231B9234C)	1.406	1.215	-0.429	106.812	-57.800	-47.791	30.33	33.18	39.02	40.964	-17.836	-10.976	0.89996	0.10883	0.30969	0.28671	25.9	13111	100
2025-5-25 10:27:53.535	WT901BLE68(801231B9234C)	1.455	1.091	-0.438	110.229	-33.508	-14.526	32.50	32.82	38.04	40.964	-17.836	-10.976	0.89996	0.10883	0.30969	0.28671	25.9	13111	100
2025-5-25 10:27:53.564	WT901BLE68(801231B9234C)	1.047	1.028	-0.333	99.121	-19.714	83.496	35.49	31.72	38.87	40.964	-17.836	-10.976	0.89996	0.10883	0.30969	0.28671	25.9	13111	100
2025-5-25 10:27:53.564	WT901BLE68(801231B9234C)	0.934	1.260	-0.181	93.628	22.766	194.458	39.57	29.63	42.08	40.964	-17.836	-10.976	0.89996	0.10883	0.30969	0.28671	25.9	13111	100
2025-5-25 10:27:53.595	WT901BLE68(801231B9234C)	0.311	1.565	-0.083	64.880	55.176	278.687	44.07	26.56	47.24	40.964	-17.836	-10.976	0.89996	0.10883	0.30969	0.28671	25.9	13111	100
2025-5-25 10:27:53.595	WT901BLE68(801231B9234C)	-1.256	1.806	0.085	26.428	75.928	332.397	47.75	22.42	53.16	40.964	-17.836	-10.976	0.89996	0.10883	0.30969	0.28671	25.9	13111	100
2025-5-25 10:27:53.655	WT901BLE68(801231B9234C)	-3.750	2.587	0.322	-74.341	90.515	332.275	49.73	18.24	59.38	40.964	-17.836	-10.976	0.89996	0.10883	0.30969	0.28671	25.9	13111	100
2025-5-25 10:27:53.655	WT901BLE68(801231B9234C)	-3.578	2.631	1.240	-230.347	91.431	339.294	47.95	13.97	64.88	40.964	-17.836	-10.976	0.89996	0.10883	0.30969	0.28671	25.9	13111	100
2025-5-25 10:27:53.684	WT901BLE68(801231B9234C)	-3.143	1.752	1.383	-105.713	-9.033	356.995	46.33	9.17	70.27	34.594	2.646	-23.618	0.89996	0.10883	0.30969	0.28671	25.9	13111	100
2025-5-25 10:27:53.684	WT901BLE68(801231B9234C)	-2.148	1.602	1.144	-143.982	77.332	220.276	44.61	6.30	74.31	34.594	2.646	-23.618	0.89996	0.10883	0.30969	0.28671	25.9	13111	100
2025-5-25 10:27:53.714	WT901BLE68(801231B9234C)	-1.903	0.706	0.869	-97.656	154.785	195.862	43.12	5.53	78.49	34.594	2.646	-23.618	0.89996	0.10883	0.30969	0.28671	25.9	13111	100
2025-5-25 10:27:53.714	WT901BLE68(801231B9234C)	-1.788	0.207	0.761	-85.144	234.436	161.011	42.30	6.51	83.41	34.594	2.646	-23.618	0.89996	0.10883	0.30969	0.28671	25.9	13111	100
2025-5-25 10:27:53.774	WT901BLE68(801231B9234C)	-1.480	-0.148	0.657	-77.148	195.801	138.794	41.68	8.14	87.96	34.594	2.646	-23.618	0.89996	0.10883	0.30969	0.28671	25.9	13111	100
2025-5-25 10:27:53.774	WT901BLE68(801231B9234C)	-1.156	-0.495	0.536	-66.956	95.764	117.493	41.20	8.83	91.01	34.594	2.646	-23.618	0.89996	0.10883	0.30969	0.28671	25.9	13111	100
2025-5-25 10:27:53.805	WT901BLE68(801231B9234C)	-0.830	-0.793	0.530	-67.139	34.607	78.979	40.61	8.82	92.40	34.594	2.646	-23.618	0.89996	0.10883	0.30969	0.28671	25.9	13111	100
2025-5-25 10:27:53.805	WT901BLE68(801231B9234C)	-0.484	-0.980	0.552	-65.063	1.282	42.542	39.11	8.50	93.94	34.594	2.646	-23.618	0.89996	0.10883	0.30969	0.28671	25.9	13111	100
2025-5-25 10:27:53.837	WT901BLE68(801231B9234C)	-0.224	-1.199	0.524	-65.186	-30.579	13.245	37.20	8.20	94.96	34.594	2.646	-23.618	0.89996	0.10883	0.30969	0.28671	25.9	13111	100
2025-5-25 10:27:53.837	WT901BLE68(801231B9234C)	-0.032	-1.473	0.522	-61.829	-53.040	-28.625	35.12	7.87	94.98	34.594	2.646	-23.618	0.89996	0.10883	0.30969	0.28671	25.9	13111	100
2025-5-25 10:27:53.895	WT901BLE68(801231B9234C)	-0.180	-1.484	0.341	-53.955	-45.471	-78.796	32.98	7.88	94.06	34.594	2.646	-23.618	0.67325	0.14133	0.24493	0.68311	25.9	13111	100
2025-5-25 10:27:53.895	WT901BLE68(801231B9234C)	-0.618	-1.345	0.341	-30.823	5.737	-107.178	31.04	8.74	92.78	34.594	2.646	-23.618	0.67325	0.14133	0.24493	0.68311	25.9	13111	100
2025-5-25 10:27:53.924	WT901BLE68(801231B9234C)	-1.187	-1.101	0.478	-1.953	31.433	-147.644	29.56	10.57	91.28	34.594	2.646	-23.618	0.67325	0.14133	0.24493	0.68311	25.9	13111	100
2025-5-25 10:27:53.924	WT901BLE68(801231B9234C)	-1.689	-0.787	0.651	16.296	-15.015	-215.759	28.25	12.55	88.50	34.594	2.646	-23.618	0.67325	0.14133	0.24493	0.68311	25.9	13111	100
2025-5-25 10:27:53.955	WT901BLE68(801231B9234C)	-2.264	-0.441	0.590	29.785	-102.112	-272.156	26.70	13.69	83.79	34.594	2.646	-23.618	0.67325	0.14133	0.24493	0.68311	25.9	13111	100
2025-5-25 10:27:53.955	WT901BLE68(801231B9234C)	-2.955	-0.085	0.689	29.114	-159.058	-281.799	25.03	13.69	77.96	34.594	2.646	-23.618	0.67325	0.14133	0.24493	0.68311	25.9	13111	100
2025-5-25 10:27:54.15	WT901BLE68(801231B9234C)	-3.531	0.145	0.933	-7.141	-190.979	-268.860	22.99	12.69	72.17	34.594	2.646	-23.618	0.67325	0.14133	0.24493	0.68311	25.9	13111	100
2025-5-25 10:27:54.15	WT901BLE68(801231B9234C)	-3.657	0.677	1.008	-65.674	-221.497	-312.500	20.04	11.09	65.97	34.594	2.646	-23.618	0.67325	0.14133	0.24493	0.68311	25.9	13111	100
2025-5-25 10:27:54.44	WT901BLE68(801231B9234C)	-2.481	0.907	1.078	-44.189	-278.320	-325.562	18.21	8.56	56.98	34.594	2.646	-23.618	0.67325	0.14133	0.24493	0.68311	25.9	13111	100
2025-5-25 10:27:54.44	WT901BLE68(801231B9234C)	-1.689	1.518	0.976	-18.982	-177.429	-300.049	17.33	6.73	48.81	34.594	2.646	-23.618	0.67325	0.14133	0.24493	0.68311	25.9	13111	100
2025-5-25 10:27:54.76	WT901BLE68(801231B9234C)	-0.948	1.866	0.513	-3.357	38.330	-234.558	17.03	8.00	42.92	34.594	2.646	-23.618	0.67325	0.14133	0.24493	0.68311	25.9	13111	100
2025-5-25 10:27:54.76	WT901BLE68(801231B9234C)	-0.618	1.468	0.138	58.044	234.741	-200.623	17.59	13.00	39.44	26.656	14.504	-26.362	0.67325	0.14133	0.24493	0.68311	25.9	13111	100
2025-5-25 10:27:54.135	WT901BLE68(801231B9234C)	-0.608	1.292	0.012	120.056	314.392	-182.007	19.49	20.30	37.36	26.656	14.504	-26.362	0.67325	0.14133	0.24493	0.68311	25.9	13111	100
2025-5-25 10:27:54.135	WT901BLE68(801231B9234C)	-0.123	1.434	0.039	147.766	202.576	-167.419	22.09	26.71	35.62	26.656	14.504	-26.362	0.67325	0.14133	0.24493	0.68311	25.9	13111	100
2025-5-25 10:27:54.164	WT901BLE68(801231B9234C)	0.558	1.561	0.086	154.602	31.494	-133.789	24.54	29.89	33.28	26.656	14.504	-26.362	0.67325	0.14133	0.24493	0.68311	25.9	13111	100
2025-5-25 10:27:54.164	WT901BLE68(801231B9234C)	1.088	1.645	-0.155	131.042	-57.251	-120.422	26.47	30.59	30.45	26.656	14.504	-26.362	0.67325	0.14133	0.24493	0.68311	25.9	13111	100
2025-5-25 10:27:54.195	WT901BLE68(801231B9234C)	1.147	1.606	-0.432	134.460	-36.255	-97.412	28.42	30.93	27.90	26.656	14.504	-26.362	0.67325	0.14133	0.24493	0.68311	25.9	13111	100
2025-5-25 10:27:54.195	WT901BLE68(801231B9234C)	0.777	1.563	-0.539	133.545	1.770	-16.968	31.14	31.12	26.97	26.656	14.504	-26.362	0.67325	0.14133	0.24493	0.68311	25.9	13111	100
2025-5-25 10:27:54.255	WT901BLE68(801231B9234C)	0.443	1.560	-0.439	112.244	103.882	105.286	35.37	31.43	29.29	26.656	14.504	-26.362	0.67325	0.14133	0.24493	0.68311	25.9	13111	100
2025-5-25 10:27:54.256	WT901BLE68(801231B9234C)	0.205	1.513	-0.294	80.139	145.874	233.704	40.73	30.95	35.02	26.656	14.504	-26.362	0.67325	0.14133	0.24493	0.68311	25.9	13111	100
2025-5-25 10:27:54.284	WT901BLE68(801231B9234C)	-0.571	1.451	-0.038	40.710	154.663	320.190	46.06	28.76	42.47	26.656	14.504	-26.362	0.86514	0.27649	0.34747	0.23288	25.9	13111	100
2025-5-25 10:27:54.284	WT901BLE68(801231B9234C)	-2.155	1.813	0.350	-51.941	159.424	370.483	50.01	25.29	50.50	26.656	14.504	-26.362	0.86514	0.27649	0.34747	0.23288	25.9	13111	100
2025-5-25 10:27:54.315	WT901BLE68(801231B9234C)	-3.360	2.186	0.421	-130.859	184.082	395.935	51.64	21.21	58.63	26.656	14.504	-26.362	0.86514	0.27649	0.34747	0.23288	25.9	13111	100
2025-5-25 10:27:54.315	WT901BLE68(801231B9234C)	-3.696	1.727	0.824	-120.605	116.638	478.333	51.72	15.87	66.75	26.656	14.504	-26.362	0.86514	0.27649	0.34747	0.23288	25.9	13111	100
2025-5-25 10:27:54.375	WT901BLE68(801231B9234C)	-3.537	2.008	1.039	-111.084	166.504	375.305	51.64	10.89	74.03	26.656	14.504	-26.362	0.86514	0.27649	0.34747	0.23288	25.9	13111	100
2025-5-25 10:27:54.375	WT901BLE68(801231B9234C)	-3.002	1.144	1.032	-111.511	220.398	266.663	50.83	8.96	80.66	26.656	14.504	-26.362	0.86514	0.27649	0.34747	0.23288	25.9	13111	100
2025-5-25 10:27:54.404	WT901BLE68(801231B9234C)	-2.348	0.408	0.709	-84.351	220.947	200.439	50.25	8.65	86.49	26.656	14.504	-26.362	0.86514	0.27649	0.34747	0.23288	25.9	13111	100
2025-5-25 10:27:54.404	WT901BLE68(801231B9234C)	-1.713	0.017	0.444	-55.359	203.735	158.630	50.28	9.13	91.47	26.656	14.504	-26.362	0.86514	0.27649	0.34747	0.23288	25.9	13111	100
2025-5-25 10:27:54.437	WT901BLE68(801231B9234C)	-1.253	-0.380	0.289	-52.856	147.766	118.652	50.33	9.59	95.13	26.656	14.504	-26.362	0.86514	0.27649	0.34747	0.23288	25.9	13111	100
2025-5-25 10:27:54.437	WT901BLE68(801231B9234C)	-0.827	-0.547	0.230	-53.955	85.205	86.914	50.30	9.77	97.18	26.656	14.504	-26.362	0.86514	0.27649	0.34747	0.23288	25.9	13111	100
2025-5-25 10:27:54.525	WT901BLE68(801231B9234C)	-0.431	-0.715	0.197	-46.387	44.495	67.383	49.27	9.51	99.55	40.964	-17.346	-9.604	0.86514	0.27649	0.34747	0.23288	25.9	13111	100
2025-5-25 10:27:54.525	WT901BLE68(801231B9234C)	-0.208	-0.958	0.292	-49.316	24.048	55.115	47.83	9.28	101.73	40.964	-17.346	-9.604	0.86514	0.27649	0.34747	0.23288	25.9	13111	100
2025-5-25 10:27:54.526	WT901BLE68(801231B9234C)	-0.178	-1.311	0.450	-60.730	1.343	25.574	46.07	9.21	103.22	40.964	-17.346	-9.604	0.86514	0.27649	0.34747	0.23288	25.9	13111	100
2025-5-25 10:27:54.526	WT901BLE68(801231B9234C)	-0.121	-1.704	0.441	-62.500	-18.250	2.441	43.97	9.21	103.83	40.964	-17.346	-9.604	0.86514	0.27649	0.34747	0.23288	25.9	13111	100
2025-5-25 10:27:54.584	WT901BLE68(801231B9234C)	-0.274	-1.972	0.326	-50.842	0.916	-37.415	41.87	9.62	103.94	40.964	-17.346	-9.604	0.86514	0.27649	0.34747	0.23288	25.9	13111	100
2025-5-25 10:27:54.585	WT901BLE68(801231B9234C)	-1.011	-1.591	0.356	-4.211	48.035	-69.519	40.33	11.00	103.83	40.964	-17.346	-9.604	0.86514	0.27649	0.34747	0.23288	25.9	13111	100
2025-5-25 10:27:54.614	WT901BLE68(801231B9234C)	-1.913	-1.217	0.664	34.058	65.369	-133.057	39.58	13.50	103.37	40.964	-17.346	-9.604	0.86514	0.27649	0.34747	0.23288	25.9	13111	100
2025-5-25 10:27:54.614	WT901BLE68(801231B9234C)	-2.211	-0.970	0.677	39.246	-37.109	-265.381	38.44	16.49	100.35	40.964	-17.346	-9.604	0.86514	0.27649	0.34747	0.23288	25.9	13111	100
2025-5-25 10:27:54.647	WT901BLE68(801231B9234C)	-3.140	-0.510	0.646	81.848	-116.028	-326.050	37.00	18.97	94.48	40.964	-17.346	-9.604	0.86514	0.27649	0.34747	0.23288	25.9	13111	100
2025-5-25 10:27:54.647	WT901BLE68(801231B9234C)	-4.090	0.115	0.992	65.613	-168.640	-362.305	34.97	20.93	87.09	40.964	-17.346	-9.604	0.86514	0.27649	0.34747	0.23288	25.9	13111	100
2025-5-25 10:27:54.677	WT901BLE68(801231B9234C)	-4.596	0.970	0.894	-5.188	-250.427	-357.544	31.54	21.46	78.74	40.964	-17.346	-9.604	0.86514	0.27649	0.34747	0.23288	25.9	13111	100
2025-5-25 10:27:54.677	WT901BLE68(801231B9234C)	-3.198	1.088	0.710	-36.011	-355.042	-374.268	26.59	19.71	69.36	40.964	-17.346	-9.604	0.81042	0.09808	0.26459	0.51328	25.9	13111	100
2025-5-25 10:27:54.734	WT901BLE68(801231B9234C)	-1.601	2.882	0.320	31.921	-253.235	-260.864	24.71	17.06	61.19	40.964	-17.346	-9.604	0.81042	0.09808	0.26459	0.51328	25.9	13111	100
2025-5-25 10:27:54.734	WT901BLE68(801231B9234C)	-1.115	2.274	-0.208	-9.460	-36.072	-227.112	23.79	17.24	55.23	40.964	-17.346	-9.604	0.81042	0.09808	0.26459	0.51328	25.9	13111	100
2025-5-25 10:27:54.764	WT901BLE68(801231B9234C)	-0.998	1.679	-0.220	58.655	187.866	-186.462	23.95	21.50	51.99	40.964	-17.346	-9.604	0.81042	0.09808	0.26459	0.51328	25.9	13111	100
2025-5-25 10:27:54.764	WT901BLE68(801231B9234C)	-0.451	1.289	0.077	125.854	146.912	-135.620	26.05	26.61	50.42	40.964	-17.346	-9.604	0.81042	0.09808	0.26459	0.51328	25.9	13111	100
2025-5-25 10:27:54.794	WT901BLE68(801231B9234C)	0.605	1.186	0.101	163.025	-47.180	-104.614	28.43	28.40	48.05	40.964	-17.346	-9.604	0.81042	0.09808	0.26459	0.51328	25.9	13111	100
2025-5-25 10:27:54.795	WT901BLE68(801231B9234C)	1.510	1.417	-0.284	150.024	-168.396	-64.941	30.63	27.27	44.97	40.964	-17.346	-9.604	0.81042	0.09808	0.26459	0.51328	25.9	13111	100
2025-5-25 10:27:54.854	WT901BLE68(801231B9234C)	1.847	1.448	-0.760	127.258	-171.570	-75.317	32.31	25.13	41.58	40.964	-17.346	-9.604	0.81042	0.09808	0.26459	0.51328	25.9	13111	100
2025-5-25 10:27:54.855	WT901BLE68(801231B9234C)	1.740	1.629	-0.911	138.184	-82.886	-50.720	34.83	24.30	39.13	40.964	-17.346	-9.604	0.81042	0.09808	0.26459	0.51328	25.9	13111	100
2025-5-25 10:27:54.884	WT901BLE68(801231B9234C)	1.309	1.479	-1.002	186.951	-27.161	133.362	39.08	22.66	39.80	30.282	14.504	-24.304	0.81042	0.09808	0.26459	0.51328	25.9	13111	100
2025-5-25 10:27:54.884	WT901BLE68(801231B9234C)	1.077	1.630	-0.886	167.053	73.486	301.331	44.74	19.71	44.28	30.282	14.504	-24.304	0.81042	0.09808	0.26459	0.51328	25.9	13111	100
2025-5-25 10:27:54.944	WT901BLE68(801231B9234C)	0.491	2.064	-0.750	130.981	154.358	425.293	50.72	15.38	51.88	30.282	14.504	-24.304	0.81042	0.09808	0.26459	0.51328	25.9	13111	100
2025-5-25 10:27:54.944	WT901BLE68(801231B9234C)	-0.273	2.217	-0.464	92.102	169.373	488.831	55.17	9.50	60.31	30.282	14.504	-24.304	0.81042	0.09808	0.26459	0.51328	25.9	13111	100
2025-5-25 10:27:54.974	WT901BLE68(801231B9234C)	-2.837	2.668	0.426	63.965	197.388	526.672	58.05	2.47	68.84	30.282	14.504	-24.304	0.81042	0.09808	0.26459	0.51328	25.9	13111	100
2025-5-25 10:27:54.974	WT901BLE68(801231B9234C)	-3.767	4.076	0.966	-169.983	75.562	403.748	56.58	-4.24	75.95	30.282	14.504	-24.304	0.81042	0.09808	0.26459	0.51328	25.9	13111	100
2025-5-25 10:27:55.4	WT901BLE68(801231B9234C)	-3.345	2.226	2.032	-134.644	-37.964	482.605	52.50	-10.78	81.11	30.282	14.504	-24.304	0.81042	0.09808	0.26459	0.51328	25.9	13111	100
2025-5-25 10:27:55.5	WT901BLE68(801231B9234C)	-2.936	3.456	1.950	-134.583	52.002	353.821	49.70	-17.37	85.41	30.282	14.504	-24.304	0.81042	0.09808	0.26459	0.51328	25.9	13111	100
2025-5-25 10:27:55.64	WT901BLE68(801231B9234C)	-2.009	1.441	1.412	-145.935	165.100	218.323	45.08	-18.80	90.42	30.282	14.504	-24.304	0.81042	0.09808	0.26459	0.51328	25.9	13111	100
2025-5-25 10:27:55.64	WT901BLE68(801231B9234C)	-1.729	0.715	0.916	-100.586	219.604	162.415	41.79	-18.09	95.39	30.282	14.504	-24.304	0.81042	0.09808	0.26459	0.51328	25.9	13111	100
2025-5-25 10:27:55.95	WT901BLE68(801231B9234C)	-1.146	0.133	0.747	-66.956	203.491	83.923	39.58	-16.00	98.97	30.282	14.504	-24.304	0.56476	0.31754	0.17224	0.74191	25.9	13111	100
2025-5-25 10:27:55.95	WT901BLE68(801231B9234C)	-0.827	-0.143	0.384	-32.715	135.925	59.692	38.57	-14.29	100.96	30.282	14.504	-24.304	0.56476	0.31754	0.17224	0.74191	25.9	13111	100
2025-5-25 10:27:55.124	WT901BLE68(801231B9234C)	-0.607	-0.357	-0.094	2.258	138.000	27.954	38.56	-12.71	102.03	30.282	14.504	-24.304	0.56476	0.31754	0.17224	0.74191	25.9	13111	100
2025-5-25 10:27:55.124	WT901BLE68(801231B9234C)	-0.500	-0.631	-0.339	36.072	179.138	15.015	39.36	-10.48	103.14	30.282	14.504	-24.304	0.56476	0.31754	0.17224	0.74191	25.9	13111	100
2025-5-25 10:27:55.184	WT901BLE68(801231B9234C)	-0.664	-1.065	-0.206	44.250	190.552	-8.972	40.56	-7.76	104.41	30.282	14.504	-24.304	0.56476	0.31754	0.17224	0.74191	25.9	13111	100
2025-5-25 10:27:55.184	WT901BLE68(801231B9234C)	-0.911	-1.400	0.018	48.279	143.921	-0.732	40.47	-4.91	107.57	30.282	14.504	-24.304	0.56476	0.31754	0.17224	0.74191	25.9	13111	100
2025-5-25 10:27:55.214	WT901BLE68(801231B9234C)	-1.021	-2.012	0.309	52.490	109.741	-29.419	40.41	-2.65	109.92	30.282	14.504	-24.304	0.56476	0.31754	0.17224	0.74191	25.9	13111	100
2025-5-25 10:27:55.214	WT901BLE68(801231B9234C)	-1.292	-2.072	0.546	73.059	108.582	-92.163	40.73	0.19	110.99	30.282	14.504	-24.304	0.56476	0.31754	0.17224	0.74191	25.9	13111	100
2025-5-25 10:27:55.245	WT901BLE68(801231B9234C)	-1.920	-1.679	0.765	94.604	92.529	-185.730	41.42	3.91	110.68	30.282	14.504	-24.304	0.56476	0.31754	0.17224	0.74191	25.9	13111	100
2025-5-25 10:27:55.245	WT901BLE68(801231B9234C)	-2.303	-1.159	0.907	101.868	42.725	-293.762	42.12	8.54	108.31	30.282	14.504	-24.304	0.56476	0.31754	0.17224	0.74191	25.9	13111	100
2025-5-25 10:27:55.304	WT901BLE68(801231B9234C)	-3.114	-0.507	0.812	122.986	-65.552	-389.282	42.41	13.19	103.06	39.690	-23.912	-7.448	0.56476	0.31754	0.17224	0.74191	25.9	13111	100
2025-5-25 10:27:55.304	WT901BLE68(801231B9234C)	-4.508	0.288	0.865	122.437	-126.404	-459.106	41.97	17.72	95.47	39.690	-23.912	-7.448	0.56476	0.31754	0.17224	0.74191	25.9	13111	100
2025-5-25 10:27:55.334	WT901BLE68(801231B9234C)	-5.316	1.607	1.502	5.859	-239.502	-443.359	39.22	21.18	86.24	39.690	-23.912	-7.448	0.56476	0.31754	0.17224	0.74191	25.9	13111	100
2025-5-25 10:27:55.334	WT901BLE68(801231B9234C)	-3.820	2.040	1.244	-72.327	-351.501	-386.963	33.76	21.09	76.11	39.690	-23.912	-7.448	0.56476	0.31754	0.17224	0.74191	25.9	13111	100
2025-5-25 10:27:55.364	WT901BLE68(801231B9234C)	-1.652	3.398	0.993	-100.159	-260.986	-281.738	28.47	19.50	67.92	39.690	-23.912	-7.448	0.56476	0.31754	0.17224	0.74191	25.9	13111	100
2025-5-25 10:27:55.364	WT901BLE68(801231B9234C)	-0.931	3.035	0.124	-164.673	-33.997	-264.038	24.03	20.09	61.44	39.690	-23.912	-7.448	0.56476	0.31754	0.17224	0.74191	25.9	13111	100
2025-5-25 10:27:55.424	WT901BLE68(801231B9234C)	-0.333	2.206	-0.406	-80.017	292.297	-240.112	20.58	25.82	57.59	39.690	-23.912	-7.448	0.56476	0.31754	0.17224	0.74191	25.9	13111	100
2025-5-25 10:27:55.424	WT901BLE68(801231B9234C)	0.007	1.715	-0.124	87.585	378.723	-174.316	20.96	34.37	56.13	39.690	-23.912	-7.448	0.56476	0.31754	0.17224	0.74191	25.9	13111	100
2025-5-25 10:27:55.455	WT901BLE68(801231B9234C)	0.355	1.306	0.486	226.746	208.191	-160.706	24.64	41.13	55.25	39.690	-23.912	-7.448	0.56476	0.31754	0.17224	0.74191	25.9	13111	100
2025-5-25 10:27:55.456	WT901BLE68(801231B9234C)	0.923	1.091	0.381	235.413	3.174	-158.630	27.94	44.08	52.33	39.690	-23.912	-7.448	0.56476	0.31754	0.17224	0.74191	25.9	13111	100
2025-5-25 10:27:55.484	WT901BLE68(801231B9234C)	1.780	0.830	-0.390	229.614	-143.372	-144.653	29.46	43.79	47.75	39.690	-23.912	-7.448	0.56476	0.31754	0.17224	0.74191	25.9	13111	100
2025-5-25 10:27:55.484	WT901BLE68(801231B9234C)	2.285	1.361	-1.085	233.032	-185.486	-148.438	30.96	42.34	42.21	39.690	-23.912	-7.448	0.87601	0.12274	0.40894	0.22403	25.9	13111	100
2025-5-25 10:27:55.544	WT901BLE68(801231B9234C)	1.491	1.708	-1.462	225.403	-36.438	67.810	35.24	40.79	40.78	39.690	-23.912	-7.448	0.87601	0.12274	0.40894	0.22403	25.9	13111	100
2025-5-25 10:27:55.544	WT901BLE68(801231B9234C)	1.056	1.625	-1.021	149.353	109.497	238.892	42.60	39.06	46.14	39.690	-23.912	-7.448	0.87601	0.12274	0.40894	0.22403	25.9	13111	100
2025-5-25 10:27:55.574	WT901BLE68(801231B9234C)	0.688	2.250	-0.669	88.440	137.085	425.354	50.80	35.17	55.26	39.690	-23.912	-7.448	0.87601	0.12274	0.40894	0.22403	25.9	13111	100
2025-5-25 10:27:55.574	WT901BLE68(801231B9234C)	0.285	2.651	-0.409	28.870	158.813	497.314	57.44	28.61	64.91	39.690	-23.912	-7.448	0.87601	0.12274	0.40894	0.22403	25.9	13111	100
2025-5-25 10:27:55.604	WT901BLE68(801231B9234C)	-0.084	3.027	-0.299	-36.072	168.335	624.512	61.55	20.02	74.34	39.690	-23.912	-7.448	0.87601	0.12274	0.40894	0.22403	25.9	13111	100
2025-5-25 10:27:55.604	WT901BLE68(801231B9234C)	-2.158	3.662	0.253	-100.281	151.245	706.421	62.62	8.89	83.68	39.690	-23.912	-7.448	0.87601	0.12274	0.40894	0.22403	25.9	13111	100
2025-5-25 10:27:55.664	WT901BLE68(801231B9234C)	-4.025	5.112	0.109	-123.474	208.801	620.972	61.45	-1.30	92.92	39.690	-23.912	-7.448	0.87601	0.12274	0.40894	0.22403	25.9	13111	100
2025-5-25 10:27:55.664	WT901BLE68(801231B9234C)	-4.434	5.100	0.373	-88.623	281.189	582.397	58.41	-9.09	102.99	39.690	-23.912	-7.448	0.87601	0.12274	0.40894	0.22403	25.9	13111	100
2025-5-25 10:27:55.695	WT901BLE68(801231B9234C)	-4.287	4.387	0.579	-92.346	260.376	354.919	55.07	-13.66	112.42	36.848	-16.660	-10.486	0.87601	0.12274	0.40894	0.22403	25.9	13111	100
2025-5-25 10:27:55.695	WT901BLE68(801231B9234C)	-2.751	2.147	0.464	-99.854	18.433	187.134	52.46	-15.73	116.76	36.848	-16.660	-10.486	0.87601	0.12274	0.40894	0.22403	25.9	13111	100
2025-5-25 10:27:55.724	WT901BLE68(801231B9234C)	-1.841	0.842	0.128	-96.497	-90.393	133.362	50.87	-18.65	116.72	36.848	-16.660	-10.486	0.87601	0.12274	0.40894	0.22403	25.9	13111	100
2025-5-25 10:27:55.724	WT901BLE68(801231B9234C)	-1.369	0.102	-0.061	-44.739	8.118	90.942	50.27	-20.66	116.39	36.848	-16.660	-10.486	0.87601	0.12274	0.40894	0.22403	25.9	13111	100
2025-5-25 10:27:55.784	WT901BLE68(801231B9234C)	-1.145	-0.476	-0.045	-37.964	116.699	35.828	49.59	-20.69	117.09	36.848	-16.660	-10.486	0.87601	0.12274	0.40894	0.22403	25.9	13111	100
2025-5-25 10:27:55.784	WT901BLE68(801231B9234C)	-1.183	-0.739	-0.128	-59.753	162.842	26.123	48.51	-19.46	118.49	36.848	-16.660	-10.486	0.87601	0.12274	0.40894	0.22403	25.9	13111	100
2025-5-25 10:27:55.814	WT901BLE68(801231B9234C)	-1.246	-1.541	0.042	-77.148	132.202	-5.737	46.14	-17.63	121.01	36.848	-16.660	-10.486	0.87601	0.12274	0.40894	0.22403	25.9	13111	100
2025-5-25 10:27:55.814	WT901BLE68(801231B9234C)	-1.208	-1.732	0.015	-74.951	90.942	-54.138	43.58	-15.07	123.10	36.848	-16.660	-10.486	0.87601	0.12274	0.40894	0.22403	25.9	13111	100
2025-5-25 10:27:55.845	WT901BLE68(801231B9234C)	-1.463	-2.152	-0.122	-63.538	111.572	-99.915	41.22	-11.89	124.26	36.848	-16.660	-10.486	0.87601	0.12274	0.40894	0.22403	25.9	13111	100
2025-5-25 10:27:55.845	WT901BLE68(801231B9234C)	-1.956	-2.511	0.046	17.517	166.443	-144.897	39.85	-7.44	125.17	36.848	-16.660	-10.486	0.87601	0.12274	0.40894	0.22403	25.9	13111	100
2025-5-25 10:27:55.904	WT901BLE68(801231B9234C)	-2.549	-1.337	0.471	91.736	116.882	-207.153	40.50	-2.32	124.78	36.848	-16.660	-10.486	0.43997	0.17087	0.31079	0.82495	25.9	13111	100
2025-5-25 10:27:55.904	WT901BLE68(801231B9234C)	-2.545	-0.892	0.621	103.699	-31.372	-329.590	41.53	2.32	121.54	36.848	-16.660	-10.486	0.43997	0.17087	0.31079	0.82495	25.9	13111	100
2025-5-25 10:27:55.934	WT901BLE68(801231B9234C)	-2.958	-0.288	0.494	127.258	-117.676	-435.852	42.51	6.81	114.93	36.848	-16.660	-10.486	0.43997	0.17087	0.31079	0.82495	25.9	13111	100
2025-5-25 10:27:55.934	WT901BLE68(801231B9234C)	-4.482	0.337	0.585	118.408	-157.959	-508.972	42.76	11.74	106.49	36.848	-16.660	-10.486	0.43997	0.17087	0.31079	0.82495	25.9	13111	100
2025-5-25 10:27:55.964	WT901BLE68(801231B9234C)	-4.601	1.117	0.855	-19.897	-229.553	-515.564	40.59	16.35	96.28	36.848	-16.660	-10.486	0.43997	0.17087	0.31079	0.82495	25.9	13111	100
2025-5-25 10:27:55.964	WT901BLE68(801231B9234C)	-3.935	3.045	0.760	12.207	-218.140	-425.171	37.40	18.91	87.07	36.848	-16.660	-10.486	0.43997	0.17087	0.31079	0.82495	25.9	13111	100
2025-5-25 10:27:56.24	WT901BLE68(801231B9234C)	-2.362	4.016	0.888	-50.049	-143.982	-464.661	32.82	21.75	78.21	36.848	-16.660	-10.486	0.43997	0.17087	0.31079	0.82495	25.9	13111	100
2025-5-25 10:27:56.24	WT901BLE68(801231B9234C)	-1.262	3.868	0.214	-97.961	-80.139	-449.402	27.81	25.11	68.16	36.848	-16.660	-10.486	0.43997	0.17087	0.31079	0.82495	25.9	13111	100
2025-5-25 10:27:56.55	WT901BLE68(801231B9234C)	-0.539	2.955	-0.078	-77.148	-20.569	-383.728	22.66	28.27	59.37	36.848	-16.660	-10.486	0.43997	0.17087	0.31079	0.82495	25.9	13111	100
2025-5-25 10:27:56.55	WT901BLE68(801231B9234C)	0.047	1.939	-0.304	-18.188	-13.489	-284.790	18.97	30.60	52.33	36.848	-16.660	-10.486	0.43997	0.17087	0.31079	0.82495	25.9	13111	100
2025-5-25 10:27:56.84	WT901BLE68(801231B9234C)	0.515	1.186	-0.254	50.110	12.146	-198.486	17.51	32.32	47.38	36.848	-16.660	-10.486	0.43997	0.17087	0.31079	0.82495	25.9	13111	100
2025-5-25 10:27:56.84	WT901BLE68(801231B9234C)	1.047	1.144	-0.233	87.341	31.799	-157.654	17.74	34.11	43.91	36.554	14.994	-11.760	0.43997	0.17087	0.31079	0.82495	25.9	13111	100
2025-5-25 10:27:56.144	WT901BLE68(801231B9234C)	1.748	1.150	-0.441	112.305	27.954	-145.935	18.71	35.80	40.94	36.554	14.994	-11.760	0.43997	0.17087	0.31079	0.82495	25.9	13111	100
2025-5-25 10:27:56.144	WT901BLE68(801231B9234C)	1.895	1.248	-0.899	133.850	14.771	-98.022	20.57	37.12	38.77	36.554	14.994	-11.760	0.43997	0.17087	0.31079	0.82495	25.9	13111	100
2025-5-25 10:27:56.174	WT901BLE68(801231B9234C)	1.533	1.471	-0.969	165.466	-26.367	47.180	24.47	37.14	38.82	36.554	14.994	-11.760	0.43997	0.17087	0.31079	0.82495	25.9	13111	100
2025-5-25 10:27:56.174	WT901BLE68(801231B9234C)	1.526	1.386	-0.760	152.405	-68.848	242.676	30.37	34.30	42.67	36.554	14.994	-11.760	0.43997	0.17087	0.31079	0.82495	25.9	13111	100
2025-5-25 10:27:56.205	WT901BLE68(801231B9234C)	1.160	1.828	-0.629	180.969	5.737	384.888	37.89	29.74	49.31	36.554	14.994	-11.760	0.43997	0.17087	0.31079	0.82495	25.9	13111	100
2025-5-25 10:27:56.205	WT901BLE68(801231B9234C)	0.306	2.385	-0.694	181.030	130.737	495.056	46.24	24.42	58.42	36.554	14.994	-11.760	0.43997	0.17087	0.31079	0.82495	25.9	13111	100
2025-5-25 10:27:56.265	WT901BLE68(801231B9234C)	-0.627	2.925	-0.591	134.277	206.787	615.417	53.78	17.50	69.42	36.554	14.994	-11.760	0.43997	0.17087	0.31079	0.82495	25.9	13111	100
2025-5-25 10:27:56.265	WT901BLE68(801231B9234C)	-3.543	4.159	0.141	100.464	238.342	719.971	59.24	8.11	80.73	36.554	14.994	-11.760	0.43997	0.17087	0.31079	0.82495	25.9	13111	100
2025-5-25 10:27:56.294	WT901BLE68(801231B9234C)	-4.525	4.972	0.602	-47.852	155.579	518.494	59.84	-0.57	89.56	36.554	14.994	-11.760	0.43997	0.17087	0.31079	0.82495	25.9	13111	100
2025-5-25 10:27:56.295	WT901BLE68(801231B9234C)	-4.347	4.664	1.048	52.063	214.783	450.134	60.23	-6.90	97.22	36.554	14.994	-11.760	0.51498	0.37558	0.34433	0.68924	25.9	13111	100
2025-5-25 10:27:56.354	WT901BLE68(801231B9234C)	-3.208	3.213	0.963	37.231	239.502	240.295	60.34	-9.78	104.17	36.554	14.994	-11.760	0.51498	0.37558	0.34433	0.68924	25.9	13111	100
2025-5-25 10:27:56.354	WT901BLE68(801231B9234C)	-2.097	1.495	0.820	-8.423	37.537	125.366	60.27	-11.07	107.34	36.554	14.994	-11.760	0.51498	0.37558	0.34433	0.68924	25.9	13111	100
2025-5-25 10:27:56.384	WT901BLE68(801231B9234C)	-1.291	0.535	0.585	-32.837	-72.571	99.243	60.18	-12.96	106.97	36.554	14.994	-11.760	0.51498	0.37558	0.34433	0.68924	25.9	13111	100
2025-5-25 10:27:56.384	WT901BLE68(801231B9234C)	-1.002	-0.049	0.398	-34.363	5.005	82.092	59.90	-14.39	106.72	36.554	14.994	-11.760	0.51498	0.37558	0.34433	0.68924	25.9	13111	100
2025-5-25 10:27:56.414	WT901BLE68(801231B9234C)	-1.116	-0.377	0.454	-18.799	133.606	39.307	59.40	-14.06	107.97	36.554	14.994	-11.760	0.51498	0.37558	0.34433	0.68924	25.9	13111	100
2025-5-25 10:27:56.415	WT901BLE68(801231B9234C)	-1.115	-0.837	0.586	-44.678	121.033	4.211	57.47	-12.50	111.71	36.554	14.994	-11.760	0.51498	0.37558	0.34433	0.68924	25.9	13111	100
2025-5-25 10:27:56.474	WT901BLE68(801231B9234C)	-0.768	-0.895	0.668	-86.609	60.364	18.127	55.16	-11.28	114.36	36.554	14.994	-11.760	0.51498	0.37558	0.34433	0.68924	25.9	13111	100
2025-5-25 10:27:56.474	WT901BLE68(801231B9234C)	-0.646	-1.526	0.771	-118.896	31.433	5.798	52.04	-10.64	116.16	36.554	14.994	-11.760	0.51498	0.37558	0.34433	0.68924	25.9	13111	100
2025-5-25 10:27:56.504	WT901BLE68(801231B9234C)	-1.001	-1.604	0.798	-98.022	90.332	-49.866	49.08	-8.89	117.60	32.830	-35.476	-5.586	0.51498	0.37558	0.34433	0.68924	25.9	13111	100
2025-5-25 10:27:56.504	WT901BLE68(801231B9234C)	-1.449	-1.627	0.932	-70.251	139.893	-91.309	46.50	-5.58	119.26	32.830	-35.476	-5.586	0.51498	0.37558	0.34433	0.68924	25.9	13111	100
2025-5-25 10:27:56.534	WT901BLE68(801231B9234C)	-1.709	-1.195	1.239	-44.495	43.579	-152.954	44.61	-2.09	119.40	32.830	-35.476	-5.586	0.51498	0.37558	0.34433	0.68924	25.9	13111	100
2025-5-25 10:27:56.534	WT901BLE68(801231B9234C)	-1.863	-0.645	1.223	-31.799	-88.013	-239.502	43.12	0.57	116.39	32.830	-35.476	-5.586	0.51498	0.37558	0.34433	0.68924	25.9	13111	100
2025-5-25 10:27:56.594	WT901BLE68(801231B9234C)	-2.135	-0.334	1.111	-15.381	-161.072	-321.228	41.74	2.88	110.78	32.830	-35.476	-5.586	0.51498	0.37558	0.34433	0.68924	25.9	13111	100
2025-5-25 10:27:56.594	WT901BLE68(801231B9234C)	-2.889	-0.063	0.927	-10.986	-210.449	-375.244	40.25	5.06	103.48	32.830	-35.476	-5.586	0.51498	0.37558	0.34433	0.68924	25.9	13111	100
2025-5-25 10:27:56.624	WT901BLE68(801231B9234C)	-3.748	0.458	0.708	-26.978	-261.719	-403.809	38.27	6.67	94.89	32.830	-35.476	-5.586	0.51498	0.37558	0.34433	0.68924	25.9	13111	100
2025-5-25 10:27:56.624	WT901BLE68(801231B9234C)	-4.031	1.853	0.527	-67.017	-243.286	-330.872	35.30	7.27	86.66	32.830	-35.476	-5.586	0.51498	0.37558	0.34433	0.68924	25.9	13111	100
2025-5-25 10:27:56.656	WT901BLE68(801231B9234C)	-3.388	2.169	0.841	-119.019	-225.403	-306.274	31.61	7.19	79.60	32.830	-35.476	-5.586	0.51498	0.37558	0.34433	0.68924	25.9	13111	100
2025-5-25 10:27:56.656	WT901BLE68(801231B9234C)	-2.154	3.152	0.301	-131.409	-155.884	-314.026	28.22	7.29	72.39	32.830	-35.476	-5.586	0.51498	0.37558	0.34433	0.68924	25.9	13111	100
2025-5-25 10:27:56.714	WT901BLE68(801231B9234C)	-1.050	3.047	-0.431	-128.845	-51.025	-296.570	25.38	8.74	65.21	32.830	-35.476	-5.586	0.84714	0.13229	0.18588	0.47977	25.9	13111	100
2025-5-25 10:27:56.714	WT901BLE68(801231B9234C)	-0.382	2.096	-0.469	-69.519	116.882	-247.742	23.28	12.52	60.35	32.830	-35.476	-5.586	0.84714	0.13229	0.18588	0.47977	25.9	13111	100
2025-5-25 10:27:56.744	WT901BLE68(801231B9234C)	0.078	1.493	-0.387	19.531	144.592	-213.806	22.85	17.21	56.86	32.830	-35.476	-5.586	0.84714	0.13229	0.18588	0.47977	25.9	13111	100
2025-5-25 10:27:56.744	WT901BLE68(801231B9234C)	0.462	1.391	-0.336	78.552	136.597	-188.538	23.74	21.71	53.99	32.830	-35.476	-5.586	0.84714	0.13229	0.18588	0.47977	25.9	13111	100
2025-5-25 10:27:56.775	WT901BLE68(801231B9234C)	0.805	1.464	-0.405	124.878	118.835	-173.584	25.59	25.71	51.50	32.830	-35.476	-5.586	0.84714	0.13229	0.18588	0.47977	25.9	13111	100
2025-5-25 10:27:56.776	WT901BLE68(801231B9234C)	1.229	1.605	-0.564	164.490	109.131	-151.428	28.48	29.49	49.46	32.830	-35.476	-5.586	0.84714	0.13229	0.18588	0.47977	25.9	13111	100
2025-5-25 10:27:56.834	WT901BLE68(801231B9234C)	1.288	1.820	-0.722	159.790	72.632	-95.825	31.88	32.23	48.30	32.830	-35.476	-5.586	0.84714	0.13229	0.18588	0.47977	25.9	13111	100
2025-5-25 10:27:56.834	WT901BLE68(801231B9234C)	0.934	1.555	-0.566	135.071	38.269	12.573	35.52	33.35	48.64	32.830	-35.476	-5.586	0.84714	0.13229	0.18588	0.47977	25.9	13111	100
2025-5-25 10:27:56.865	WT901BLE68(801231B9234C)	0.937	1.536	-0.295	114.319	35.828	155.151	40.17	32.48	51.42	32.830	-35.476	-5.586	0.84714	0.13229	0.18588	0.47977	25.9	13111	100
2025-5-25 10:27:56.865	WT901BLE68(801231B9234C)	0.925	1.599	-0.213	91.431	47.546	289.368	45.29	29.43	56.43	32.830	-35.476	-5.586	0.84714	0.13229	0.18588	0.47977	25.9	13111	100
2025-5-25 10:27:56.894	WT901BLE68(801231B9234C)	0.478	1.605	-0.048	76.172	127.197	401.062	50.65	24.87	63.55	32.830	-35.476	-5.586	0.84714	0.13229	0.18588	0.47977	25.9	13111	100
2025-5-25 10:27:56.895	WT901BLE68(801231B9234C)	-0.949	2.047	0.126	59.814	220.764	517.029	55.90	19.03	72.83	35.966	12.936	-18.914	0.84714	0.13229	0.18588	0.47977	25.9	13111	100
2025-5-25 10:27:56.984	WT901BLE68(801231B9234C)	-4.329	3.536	0.533	-15.442	291.199	558.167	59.74	11.97	83.59	35.966	12.936	-18.914	0.84714	0.13229	0.18588	0.47977	25.9	13111	100
2025-5-25 10:27:56.984	WT901BLE68(801231B9234C)	-3.930	3.582	0.551	-136.719	221.558	454.712	58.95	5.94	92.11	35.966	12.936	-18.914	0.84714	0.13229	0.18588	0.47977	25.9	13111	100
2025-5-25 10:27:56.985	WT901BLE68(801231B9234C)	-4.905	3.880	0.358	-45.105	246.582	485.352	58.12	-0.48	100.61	35.966	12.936	-18.914	0.84714	0.13229	0.18588	0.47977	25.9	13111	100
2025-5-25 10:27:56.985	WT901BLE68(801231B9234C)	-3.527	2.420	0.606	-76.843	325.867	223.877	56.70	-1.90	108.95	35.966	12.936	-18.914	0.84714	0.13229	0.18588	0.47977	25.9	13111	100
2025-5-25 10:27:57.14	WT901BLE68(801231B9234C)	-2.123	0.946	0.447	-84.412	89.783	140.198	55.41	-2.43	113.30	35.966	12.936	-18.914	0.84714	0.13229	0.18588	0.47977	25.9	13111	100
2025-5-25 10:27:57.14	WT901BLE68(801231B9234C)	-1.315	0.016	0.108	-64.331	-24.719	86.365	54.16	-3.67	113.92	35.966	12.936	-18.914	0.84714	0.13229	0.18588	0.47977	25.9	13111	100
2025-5-25 10:27:57.74	WT901BLE68(801231B9234C)	-0.828	-0.425	0.145	-58.594	-16.113	57.861	53.48	-4.55	113.81	35.966	12.936	-18.914	0.84714	0.13229	0.18588	0.47977	25.9	13111	100
2025-5-25 10:27:57.74	WT901BLE68(801231B9234C)	-0.502	-0.797	0.278	-59.570	15.198	33.264	51.99	-4.69	115.04	35.966	12.936	-18.914	0.84714	0.13229	0.18588	0.47977	25.9	13111	100
2025-5-25 10:27:57.104	WT901BLE68(801231B9234C)	-0.475	-1.197	0.554	-98.328	13.000	25.574	49.72	-4.36	116.71	35.966	12.936	-18.914	0.84714	0.13229	0.18588	0.47977	25.9	13111	100
2025-5-25 10:27:57.104	WT901BLE68(801231B9234C)	-0.512	-1.682	0.525	-123.962	-62.744	-12.695	46.82	-4.22	117.13	35.966	12.936	-18.914	0.46738	0.23691	0.31027	0.79312	25.9	13111	100
2025-5-25 10:27:57.135	WT901BLE68(801231B9234C)	-0.308	-2.080	0.337	-133.972	-68.298	-17.090	43.54	-4.48	116.66	35.966	12.936	-18.914	0.46738	0.23691	0.31027	0.79312	25.9	13111	100
2025-5-25 10:27:57.135	WT901BLE68(801231B9234C)	-0.448	-2.415	0.146	-82.520	-4.700	-53.223	40.61	-3.98	116.30	35.966	12.936	-18.914	0.46738	0.23691	0.31027	0.79312	25.9	13111	100
2025-5-25 10:27:57.194	WT901BLE68(801231B9234C)	-1.613	-2.131	0.270	12.634	67.993	-105.042	38.88	-1.83	116.51	35.966	12.936	-18.914	0.46738	0.23691	0.31027	0.79312	25.9	13111	100
2025-5-25 10:27:57.194	WT901BLE68(801231B9234C)	-2.920	-1.132	0.729	70.618	69.214	-141.968	39.02	1.31	116.12	35.966	12.936	-18.914	0.46738	0.23691	0.31027	0.79312	25.9	13111	100
2025-5-25 10:27:57.224	WT901BLE68(801231B9234C)	-2.567	-0.739	0.711	56.763	-167.542	-345.093	38.86	4.01	111.44	35.966	12.936	-18.914	0.46738	0.23691	0.31027	0.79312	25.9	13111	100
2025-5-25 10:27:57.224	WT901BLE68(801231B9234C)	-3.523	0.214	0.753	75.806	-296.570	-381.470	38.81	5.08	102.97	35.966	12.936	-18.914	0.46738	0.23691	0.31027	0.79312	25.9	13111	100
2025-5-25 10:27:57.255	WT901BLE68(801231B9234C)	-4.334	0.519	1.161	3.784	-376.892	-410.706	37.80	4.95	93.06	35.966	12.936	-18.914	0.46738	0.23691	0.31027	0.79312	25.9	13111	100
2025-5-25 10:27:57.255	WT901BLE68(801231B9234C)	-4.441	1.586	0.966	-84.534	-551.636	-453.186	35.23	2.89	81.04	35.966	12.936	-18.914	0.46738	0.23691	0.31027	0.79312	25.9	13111	100
2025-5-25 10:27:57.315	WT901BLE68(801231B9234C)	-2.535	2.716	0.925	-137.329	-721.313	-311.707	32.60	-4.34	67.94	36.750	-11.074	-18.816	0.46738	0.23691	0.31027	0.79312	25.9	13111	100
2025-5-25 10:27:57.316	WT901BLE68(801231B9234C)	-0.476	3.503	2.049	-149.292	-494.812	-217.468	32.05	-11.63	55.96	36.750	-11.074	-18.816	0.46738	0.23691	0.31027	0.79312	25.9	13111	100
2025-5-25 10:27:57.344	WT901BLE68(801231B9234C)	-0.495	3.697	1.227	-151.489	6.226	-200.745	31.10	-12.16	49.50	36.750	-11.074	-18.816	0.46738	0.23691	0.31027	0.79312	25.9	13111	100
2025-5-25 10:27:57.344	WT901BLE68(801231B9234C)	-0.721	2.040	0.222	-88.135	481.018	-233.337	29.20	-3.64	48.40	36.750	-11.074	-18.816	0.46738	0.23691	0.31027	0.79312	25.9	13111	100
2025-5-25 10:27:57.374	WT901BLE68(801231B9234C)	-0.213	1.230	-0.094	49.072	553.162	-251.831	29.73	8.85	49.10	36.750	-11.074	-18.816	0.46738	0.23691	0.31027	0.79312	25.9	13111	100
2025-5-25 10:27:57.374	WT901BLE68(801231B9234C)	0.313	1.083	-0.217	118.103	457.581	-200.134	32.60	19.98	50.26	36.750	-11.074	-18.816	0.46738	0.23691	0.31027	0.79312	25.9	13111	100
2025-5-25 10:27:57.434	WT901BLE68(801231B9234C)	0.861	1.330	-0.363	92.834	201.355	-158.813	35.41	27.25	50.70	36.750	-11.074	-18.816	0.46738	0.23691	0.31027	0.79312	25.9	13111	100
2025-5-25 10:27:57.434	WT901BLE68(801231B9234C)	1.376	1.267	-0.709	79.346	-65.918	-166.809	36.05	29.52	47.93	36.750	-11.074	-18.816	0.46738	0.23691	0.31027	0.79312	25.9	13111	100
2025-5-25 10:27:57.465	WT901BLE68(801231B9234C)	1.904	1.680	-1.100	52.551	-159.424	-124.329	35.85	29.09	43.45	36.750	-11.074	-18.816	0.46738	0.23691	0.31027	0.79312	25.9	13111	100
2025-5-25 10:27:57.465	WT901BLE68(801231B9234C)	1.680	1.424	-1.104	73.914	-109.985	58.105	36.45	27.10	41.43	36.750	-11.074	-18.816	0.46738	0.23691	0.31027	0.79312	25.9	13111	100
2025-5-25 10:27:57.494	WT901BLE68(801231B9234C)	1.242	1.440	-0.814	103.333	77.637	231.445	40.59	24.72	44.92	36.750	-11.074	-18.816	0.46738	0.23691	0.31027	0.79312	25.9	13111	100
2025-5-25 10:27:57.494	WT901BLE68(801231B9234C)	0.502	1.987	-0.836	92.468	154.114	355.591	45.90	21.95	52.05	36.750	-11.074	-18.816	0.84354	0.27319	0.32324	0.33051	25.9	13111	100
2025-5-25 10:27:57.554	WT901BLE68(801231B9234C)	-0.158	2.421	-0.553	64.697	205.505	447.632	51.09	17.69	60.95	36.750	-11.074	-18.816	0.84354	0.27319	0.32324	0.33051	25.9	13111	100
2025-5-25 10:27:57.555	WT901BLE68(801231B9234C)	-2.218	2.873	-0.197	60.547	243.896	521.606	55.30	12.01	70.80	36.750	-11.074	-18.816	0.84354	0.27319	0.32324	0.33051	25.9	13111	100
2025-5-25 10:27:57.584	WT901BLE68(801231B9234C)	-5.617	4.949	0.079	-55.664	319.885	433.960	57.64	6.65	81.11	36.750	-11.074	-18.816	0.84354	0.27319	0.32324	0.33051	25.9	13111	100
2025-5-25 10:27:57.584	WT901BLE68(801231B9234C)	-4.024	3.515	0.666	-179.199	123.596	486.267	54.99	1.71	88.90	36.750	-11.074	-18.816	0.84354	0.27319	0.32324	0.33051	25.9	13111	100
2025-5-25 10:27:57.614	WT901BLE68(801231B9234C)	-3.769	3.464	1.092	-85.327	152.954	396.301	53.23	-4.50	95.65	36.750	-11.074	-18.816	0.84354	0.27319	0.32324	0.33051	25.9	13111	100
2025-5-25 10:27:57.614	WT901BLE68(801231B9234C)	-2.611	1.451	1.053	-59.387	226.074	230.103	51.50	-6.04	101.85	36.750	-11.074	-18.816	0.84354	0.27319	0.32324	0.33051	25.9	13111	100
2025-5-25 10:27:57.675	WT901BLE68(801231B9234C)	-2.185	0.368	0.559	-2.930	249.023	146.606	51.12	-5.42	107.15	36.750	-11.074	-18.816	0.84354	0.27319	0.32324	0.33051	25.9	13111	100
2025-5-25 10:27:57.675	WT901BLE68(801231B9234C)	-1.622	-0.088	0.252	-8.484	231.873	114.502	51.05	-3.98	111.74	36.750	-11.074	-18.816	0.84354	0.27319	0.32324	0.33051	25.9	13111	100
2025-5-25 10:27:57.704	WT901BLE68(801231B9234C)	-1.122	-0.380	0.078	-15.564	184.631	125.610	51.11	-3.05	115.57	36.750	-11.074	-18.816	0.84354	0.27319	0.32324	0.33051	25.9	13111	100
2025-5-25 10:27:57.704	WT901BLE68(801231B9234C)	-0.839	-0.828	0.166	-21.057	154.724	110.291	50.86	-2.80	119.05	38.318	-27.538	-4.704	0.84354	0.27319	0.32324	0.33051	25.9	13111	100
2025-5-25 10:27:57.764	WT901BLE68(801231B9234C)	-0.780	-1.382	0.456	-37.720	97.229	66.528	49.48	-2.02	123.00	38.318	-27.538	-4.704	0.84354	0.27319	0.32324	0.33051	25.9	13111	100
2025-5-25 10:27:57.764	WT901BLE68(801231B9234C)	-0.693	-1.567	0.605	-59.204	4.700	17.029	47.85	-1.43	124.84	38.318	-27.538	-4.704	0.84354	0.27319	0.32324	0.33051	25.9	13111	100
2025-5-25 10:27:57.794	WT901BLE68(801231B9234C)	-0.599	-1.891	0.441	-86.792	-52.673	-4.211	45.63	-1.38	124.99	38.318	-27.538	-4.704	0.84354	0.27319	0.32324	0.33051	25.9	13111	100
2025-5-25 10:27:57.794	WT901BLE68(801231B9234C)	-0.739	-2.258	0.279	-73.975	-11.841	-21.362	43.18	-1.09	124.87	38.318	-27.538	-4.704	0.84354	0.27319	0.32324	0.33051	25.9	13111	100
2025-5-25 10:27:57.824	WT901BLE68(801231B9234C)	-1.734	0.404	0.212	-5.554	39.612	-81.787	41.28	0.45	125.39	38.318	-27.538	-4.704	0.84354	0.27319	0.32324	0.33051	25.9	13111	100
2025-5-25 10:27:57.824	WT901BLE68(801231B9234C)	-1.812	-1.149	0.399	48.340	36.316	-150.696	40.83	3.33	124.62	38.318	-27.538	-4.704	0.84354	0.27319	0.32324	0.33051	25.9	13111	100
2025-5-25 10:27:57.884	WT901BLE68(801231B9234C)	-2.134	-0.790	0.489	48.279	-49.866	-239.319	40.64	6.31	121.81	38.318	-27.538	-4.704	0.84354	0.27319	0.32324	0.33051	25.9	13111	100
2025-5-25 10:27:57.884	WT901BLE68(801231B9234C)	-3.225	-0.457	0.263	80.627	-130.615	-342.834	40.34	9.18	116.16	38.318	-27.538	-4.704	0.84354	0.27319	0.32324	0.33051	25.9	13111	100
2025-5-25 10:27:57.915	WT901BLE68(801231B9234C)	-4.578	0.183	0.473	85.388	-181.885	-412.292	39.80	12.22	108.53	38.318	-27.538	-4.704	0.84354	0.27319	0.32324	0.33051	25.9	13111	100
2025-5-25 10:27:57.915	WT901BLE68(801231B9234C)	-6.411	1.228	0.544	43.396	-240.784	-443.176	38.07	14.75	99.32	38.318	-27.538	-4.704	0.68723	0.12256	0.30325	0.64856	25.9	13111	100
2025-5-25 10:27:57.943	WT901BLE68(801231B9234C)	-4.742	2.285	0.798	-30.396	-382.202	-461.365	33.91	15.36	88.60	38.318	-27.538	-4.704	0.68723	0.12256	0.30325	0.64856	25.9	13111	100
2025-5-25 10:27:57.943	WT901BLE68(801231B9234C)	-1.679	4.322	0.104	60.852	-448.364	-372.620	31.22	12.31	77.94	38.318	-27.538	-4.704	0.68723	0.12256	0.30325	0.64856	25.9	13111	100
2025-5-25 10:27:58.5	WT901BLE68(801231B9234C)	-0.466	3.744	-0.485	-22.827	-155.945	-338.135	30.54	11.66	68.24	38.318	-27.538	-4.704	0.68723	0.12256	0.30325	0.64856	25.9	13111	100
2025-5-25 10:27:58.5	WT901BLE68(801231B9234C)	-0.697	2.737	-0.531	-14.771	150.330	-275.146	29.34	15.84	62.92	38.318	-27.538	-4.704	0.68723	0.12256	0.30325	0.64856	25.9	13111	100
2025-5-25 10:27:58.34	WT901BLE68(801231B9234C)	-0.673	1.659	-0.280	60.791	232.849	-266.602	29.94	22.92	60.31	38.318	-27.538	-4.704	0.68723	0.12256	0.30325	0.64856	25.9	13111	100
2025-5-25 10:27:58.34	WT901BLE68(801231B9234C)	0.231	1.464	-0.060	106.201	74.463	-200.256	31.10	27.95	57.35	38.318	-27.538	-4.704	0.68723	0.12256	0.30325	0.64856	25.9	13111	100
2025-5-25 10:27:58.67	WT901BLE68(801231B9234C)	1.218	1.563	-0.288	136.658	-59.143	-148.682	32.76	29.76	54.05	38.318	-27.538	-4.704	0.68723	0.12256	0.30325	0.64856	25.9	13111	100
2025-5-25 10:27:58.67	WT901BLE68(801231B9234C)	1.885	1.567	-0.737	112.122	-94.971	-152.710	33.80	30.05	50.11	38.318	-27.538	-4.704	0.68723	0.12256	0.30325	0.64856	25.9	13111	100
2025-5-25 10:27:58.125	WT901BLE68(801231B9234C)	1.812	1.695	-1.008	102.173	-27.405	-161.194	34.76	31.17	46.48	35.280	17.150	-17.738	0.68723	0.12256	0.30325	0.64856	25.9	13111	100
2025-5-25 10:27:58.125	WT901BLE68(801231B9234C)	1.134	1.413	-0.843	131.531	-25.574	-11.841	37.32	31.71	45.25	35.280	17.150	-17.738	0.68723	0.12256	0.30325	0.64856	25.9	13111	100
2025-5-25 10:27:58.154	WT901BLE68(801231B9234C)	1.594	1.458	-0.670	110.168	-72.571	164.001	41.03	29.45	46.57	35.280	17.150	-17.738	0.68723	0.12256	0.30325	0.64856	25.9	13111	100
2025-5-25 10:27:58.154	WT901BLE68(801231B9234C)	1.390	1.421	-0.535	89.233	1.709	311.707	45.37	24.99	50.60	35.280	17.150	-17.738	0.68723	0.12256	0.30325	0.64856	25.9	13111	100
2025-5-25 10:27:58.184	WT901BLE68(801231B9234C)	0.445	1.539	-0.286	91.797	169.312	407.410	50.61	20.49	57.94	35.280	17.150	-17.738	0.68723	0.12256	0.30325	0.64856	25.9	13111	100
2025-5-25 10:27:58.184	WT901BLE68(801231B9234C)	-2.532	2.194	-0.070	106.079	261.780	510.010	56.10	15.16	67.84	35.280	17.150	-17.738	0.68723	0.12256	0.30325	0.64856	25.9	13111	100
2025-5-25 10:27:58.245	WT901BLE68(801231B9234C)	-6.273	5.427	0.091	-46.326	280.273	410.461	59.91	9.24	77.98	35.280	17.150	-17.738	0.68723	0.12256	0.30325	0.64856	25.9	13111	100
2025-5-25 10:27:58.245	WT901BLE68(801231B9234C)	-3.331	2.855	0.457	-203.064	-112.427	539.917	55.95	2.54	82.27	35.280	17.150	-17.738	0.68723	0.12256	0.30325	0.64856	25.9	13111	100
2025-5-25 10:27:58.277	WT901BLE68(801231B9234C)	-3.989	3.533	1.866	6.042	-125.793	369.873	55.82	-7.53	84.14	35.280	17.150	-17.738	0.68723	0.12256	0.30325	0.64856	25.9	13111	100
2025-5-25 10:27:58.277	WT901BLE68(801231B9234C)	-2.071	1.628	1.776	-39.612	114.868	153.076	54.86	-9.48	86.82	35.280	17.150	-17.738	0.68723	0.12256	0.30325	0.64856	25.9	13111	100
2025-5-25 10:27:58.307	WT901BLE68(801231B9234C)	-1.620	0.599	0.893	31.372	205.383	123.535	55.17	-9.33	90.68	35.280	17.150	-17.738	0.68723	0.12256	0.30325	0.64856	25.9	13111	100
2025-5-25 10:27:58.307	WT901BLE68(801231B9234C)	-1.389	-0.033	0.556	15.747	286.194	103.516	55.25	-7.67	95.66	35.280	17.150	-17.738	0.56094	0.35397	0.30975	0.68118	25.9	13111	100
2025-5-25 10:27:58.365	WT901BLE68(801231B9234C)	-0.933	-0.661	0.514	2.869	234.985	94.543	55.20	-5.90	100.37	35.280	17.150	-17.738	0.56094	0.35397	0.30975	0.68118	25.9	13111	100
2025-5-25 10:27:58.365	WT901BLE68(801231B9234C)	-0.590	-0.888	0.548	-7.874	150.391	83.618	55.35	-4.98	103.34	35.280	17.150	-17.738	0.56094	0.35397	0.30975	0.68118	25.9	13111	100
2025-5-25 10:27:58.394	WT901BLE68(801231B9234C)	-0.406	-1.203	0.607	-40.710	104.248	67.017	53.85	-4.53	107.28	35.280	17.150	-17.738	0.56094	0.35397	0.30975	0.68118	25.9	13111	100
2025-5-25 10:27:58.394	WT901BLE68(801231B9234C)	-0.522	-1.490	0.711	-74.158	72.510	28.259	51.78	-3.82	110.07	35.280	17.150	-17.738	0.56094	0.35397	0.30975	0.68118	25.9	13111	100
2025-5-25 10:27:58.428	WT901BLE68(801231B9234C)	-0.639	-1.814	0.709	-104.248	35.706	-4.883	49.05	-2.96	111.70	35.280	17.150	-17.738	0.56094	0.35397	0.30975	0.68118	25.9	13111	100
2025-5-25 10:27:58.428	WT901BLE68(801231B9234C)	-0.877	-2.180	0.469	-96.436	40.955	-48.828	46.13	-1.62	112.40	35.280	17.150	-17.738	0.56094	0.35397	0.30975	0.68118	25.9	13111	100
2025-5-25 10:27:58.486	WT901BLE68(801231B9234C)	-1.489	-2.018	0.484	-47.913	83.191	-102.722	43.80	0.78	112.79	35.280	17.150	-17.738	0.56094	0.35397	0.30975	0.68118	25.9	13111	100
2025-5-25 10:27:58.486	WT901BLE68(801231B9234C)	-1.944	-1.406	0.920	3.113	55.054	-210.693	42.47	4.40	111.79	35.280	17.150	-17.738	0.56094	0.35397	0.30975	0.68118	25.9	13111	100
2025-5-25 10:27:58.518	WT901BLE68(801231B9234C)	-2.011	-0.822	1.001	5.859	-71.228	-355.530	41.15	8.45	107.46	35.280	17.150	-17.738	0.56094	0.35397	0.30975	0.68118	25.9	13111	100
2025-5-25 10:27:58.518	WT901BLE68(801231B9234C)	-2.629	-0.223	0.618	37.292	-148.987	-421.204	39.36	11.99	99.92	41.454	-20.384	-6.272	0.56094	0.35397	0.30975	0.68118	25.9	13111	100
2025-5-25 10:27:58.547	WT901BLE68(801231B9234C)	-3.812	-0.054	0.552	38.086	-180.542	-459.290	37.17	15.19	91.18	41.454	-20.384	-6.272	0.56094	0.35397	0.30975	0.68118	25.9	13111	100
2025-5-25 10:27:58.547	WT901BLE68(801231B9234C)	-5.162	0.174	0.685	11.536	-256.958	-466.675	33.94	17.28	81.22	41.454	-20.384	-6.272	0.56094	0.35397	0.30975	0.68118	25.9	13111	100
2025-5-25 10:27:58.605	WT901BLE68(801231B9234C)	-4.907	0.958	1.055	-65.857	-356.567	-425.781	29.26	16.82	70.63	41.454	-20.384	-6.272	0.56094	0.35397	0.30975	0.68118	25.9	13111	100
2025-5-25 10:27:58.605	WT901BLE68(801231B9234C)	-2.965	1.494	1.164	-92.834	-356.873	-424.805	24.06	14.20	59.82	41.454	-20.384	-6.272	0.56094	0.35397	0.30975	0.68118	25.9	13111	100
2025-5-25 10:27:58.634	WT901BLE68(801231B9234C)	-1.628	3.010	0.236	1.282	-186.523	-297.668	21.67	12.82	49.79	41.454	-20.384	-6.272	0.56094	0.35397	0.30975	0.68118	25.9	13111	100
2025-5-25 10:27:58.634	WT901BLE68(801231B9234C)	-0.949	2.283	-0.558	-76.050	105.652	-249.268	19.52	15.27	43.94	41.454	-20.384	-6.272	0.56094	0.35397	0.30975	0.68118	25.9	13111	100
2025-5-25 10:27:58.665	WT901BLE68(801231B9234C)	-0.447	1.371	-0.554	43.030	307.434	-169.067	19.07	21.83	41.31	41.454	-20.384	-6.272	0.56094	0.35397	0.30975	0.68118	25.9	13111	100
2025-5-25 10:27:58.665	WT901BLE68(801231B9234C)	-0.265	1.152	-0.145	119.934	299.805	-123.474	21.48	29.15	40.86	41.454	-20.384	-6.272	0.56094	0.35397	0.30975	0.68118	25.9	13111	100
2025-5-25 10:27:58.725	WT901BLE68(801231B9234C)	0.227	1.134	0.040	153.137	159.363	-151.550	24.07	34.55	39.57	41.454	-20.384	-6.272	0.56094	0.35397	0.30975	0.68118	25.9	13111	100
2025-5-25 10:27:58.725	WT901BLE68(801231B9234C)	1.072	1.408	0.056	145.447	36.072	-139.465	26.26	37.60	37.27	41.454	-20.384	-6.272	0.56094	0.35397	0.30975	0.68118	25.9	13111	100
2025-5-25 10:27:58.757	WT901BLE68(801231B9234C)	1.495	1.438	-0.275	116.577	-57.800	-117.737	27.55	38.44	34.35	41.454	-20.384	-6.272	0.89987	0.12622	0.36862	0.19574	25.9	13111	100
2025-5-25 10:27:58.757	WT901BLE68(801231B9234C)	1.180	1.308	-0.667	127.380	-78.430	-103.821	28.81	38.41	31.27	41.454	-20.384	-6.272	0.89987	0.12622	0.36862	0.19574	25.9	13111	100
2025-5-25 10:27:58.785	WT901BLE68(801231B9234C)	0.948	1.382	-0.702	99.731	-61.951	47.302	30.91	37.30	30.32	41.454	-20.384	-6.272	0.89987	0.12622	0.36862	0.19574	25.9	13111	100
2025-5-25 10:27:58.785	WT901BLE68(801231B9234C)	1.135	1.350	-0.370	77.332	33.142	200.623	35.40	35.45	33.96	41.454	-20.384	-6.272	0.89987	0.12622	0.36862	0.19574	25.9	13111	100
2025-5-25 10:27:58.844	WT901BLE68(801231B9234C)	0.551	1.460	-0.389	81.177	164.612	312.805	41.67	33.44	41.23	41.454	-20.384	-6.272	0.89987	0.12622	0.36862	0.19574	25.9	13111	100
2025-5-25 10:27:58.845	WT901BLE68(801231B9234C)	-0.913	1.883	-0.541	31.311	276.306	401.794	48.65	31.09	51.57	41.454	-20.384	-6.272	0.89987	0.12622	0.36862	0.19574	25.9	13111	100
2025-5-25 10:27:58.905	WT901BLE68(801231B9234C)	-6.146	3.009	-0.692	-53.528	301.147	502.686	54.65	26.95	63.50	41.454	-20.384	-6.272	0.89987	0.12622	0.36862	0.19574	25.9	13111	100
2025-5-25 10:27:58.905	WT901BLE68(801231B9234C)	-3.997	3.696	-0.096	-429.443	93.689	380.188	52.95	21.60	72.36	41.454	-20.384	-6.272	0.89987	0.12622	0.36862	0.19574	25.9	13111	100
2025-5-25 10:27:58.906	WT901BLE68(801231B9234C)	-4.639	1.165	0.659	-51.636	-82.642	572.144	51.80	12.71	78.62	41.454	-20.384	-6.272	0.89987	0.12622	0.36862	0.19574	25.9	13111	100
2025-5-25 10:27:58.906	WT901BLE68(801231B9234C)	-4.090	3.059	0.570	-102.661	339.172	261.719	52.37	9.06	86.03	37.828	7.350	-17.052	0.89987	0.12622	0.36862	0.19574	25.9	13111	100
2025-5-25 10:27:58.964	WT901BLE68(801231B9234C)	-2.692	0.534	0.971	-104.492	279.663	182.190	51.64	10.43	93.76	37.828	7.350	-17.052	0.89987	0.12622	0.36862	0.19574	25.9	13111	100
2025-5-25 10:27:58.965	WT901BLE68(801231B9234C)	-1.879	0.033	0.602	-45.593	120.056	132.385	51.83	10.71	97.83	37.828	7.350	-17.052	0.89987	0.12622	0.36862	0.19574	25.9	13111	100
2025-5-25 10:27:58.995	WT901BLE68(801231B9234C)	-1.288	-0.304	0.278	-53.955	52.612	124.329	51.73	10.10	99.95	37.828	7.350	-17.052	0.89987	0.12622	0.36862	0.19574	25.9	13111	100
2025-5-25 10:27:58.995	WT901BLE68(801231B9234C)	-0.813	-0.864	0.329	-64.148	39.001	139.221	51.32	8.94	101.80	37.828	7.350	-17.052	0.89987	0.12622	0.36862	0.19574	25.9	13111	100
2025-5-25 10:27:59.24	WT901BLE68(801231B9234C)	-0.539	-1.180	0.504	-65.186	6.165	108.459	50.51	7.88	103.45	37.828	7.350	-17.052	0.89987	0.12622	0.36862	0.19574	25.9	13111	100
2025-5-25 10:27:59.24	WT901BLE68(801231B9234C)	-0.350	-1.397	0.552	-77.759	-31.616	74.646	48.47	6.76	105.06	37.828	7.350	-17.052	0.89987	0.12622	0.36862	0.19574	25.9	13111	100
2025-5-25 10:27:59.87	WT901BLE68(801231B9234C)	-0.148	-1.540	0.570	-79.529	-44.739	41.016	46.19	5.93	105.94	37.828	7.350	-17.052	0.89987	0.12622	0.36862	0.19574	25.9	13111	100
2025-5-25 10:27:59.87	WT901BLE68(801231B9234C)	-0.225	-1.935	0.509	-74.585	-40.527	-6.592	43.78	5.46	106.07	37.828	7.350	-17.052	0.89987	0.12622	0.36862	0.19574	25.9	13111	100
2025-5-25 10:27:59.117	WT901BLE68(801231B9234C)	-0.565	-2.202	0.359	-46.143	29.419	-49.622	41.63	6.30	106.07	37.828	7.350	-17.052	0.89987	0.12622	0.36862	0.19574	25.9	13111	100
2025-5-25 10:27:59.117	WT901BLE68(801231B9234C)	-1.096	-1.779	0.493	12.024	50.415	-86.060	40.33	8.26	106.09	37.828	7.350	-17.052	0.58670	0.15182	0.31876	0.72870	25.9	13111	100
2025-5-25 10:27:59.175	WT901BLE68(801231B9234C)	-1.560	-1.191	0.846	53.162	-23.621	-172.302	39.81	10.40	104.41	37.828	7.350	-17.052	0.58670	0.15182	0.31876	0.72870	25.9	13111	100
2025-5-25 10:27:59.175	WT901BLE68(801231B9234C)	-1.703	-0.667	0.847	44.434	-156.372	-298.218	38.80	12.18	99.46	37.828	7.350	-17.052	0.58670	0.15182	0.31876	0.72870	25.9	13111	100
2025-5-25 10:27:59.204	WT901BLE68(801231B9234C)	-2.315	-0.348	0.604	54.382	-225.281	-343.567	37.20	13.25	91.90	37.828	7.350	-17.052	0.58670	0.15182	0.31876	0.72870	25.9	13111	100
2025-5-25 10:27:59.204	WT901BLE68(801231B9234C)	-3.745	-0.292	0.561	41.260	-256.836	-372.620	35.22	13.80	83.45	37.828	7.350	-17.052	0.58670	0.15182	0.31876	0.72870	25.9	13111	100
2025-5-25 10:27:59.235	WT901BLE68(801231B9234C)	-5.709	-0.197	1.031	-9.644	-353.149	-358.826	32.45	13.04	74.31	37.828	7.350	-17.052	0.58670	0.15182	0.31876	0.72870	25.9	13111	100
2025-5-25 10:27:59.235	WT901BLE68(801231B9234C)	-4.375	1.075	1.702	-137.268	-551.514	-354.370	27.73	8.71	64.02	37.828	7.350	-17.052	0.58670	0.15182	0.31876	0.72870	25.9	13111	100
2025-5-25 10:27:59.297	WT901BLE68(801231B9234C)	-2.706	1.518	1.431	-140.076	-610.352	-352.356	24.28	1.08	51.84	37.828	7.350	-17.052	0.58670	0.15182	0.31876	0.72870	25.9	13111	100
2025-5-25 10:27:59.297	WT901BLE68(801231B9234C)	-0.852	6.475	0.966	-46.631	-333.801	-242.188	23.82	-4.66	41.95	37.828	7.350	-17.052	0.58670	0.15182	0.31876	0.72870	25.9	13111	100
2025-5-25 10:27:59.327	WT901BLE68(801231B9234C)	-0.802	1.950	0.188	-128.540	146.179	-192.810	22.59	-2.88	37.95	37.828	7.350	-17.052	0.58670	0.15182	0.31876	0.72870	25.9	13111	100
2025-5-25 10:27:59.327	WT901BLE68(801231B9234C)	-0.858	1.001	-0.097	18.738	461.792	-182.922	22.19	5.98	36.89	20.874	17.738	-28.224	0.58670	0.15182	0.31876	0.72870	25.9	13111	100
2025-5-25 10:27:59.357	WT901BLE68(801231B9234C)	-0.753	1.061	-0.072	93.872	459.778	-173.889	24.39	16.75	37.19	20.874	17.738	-28.224	0.58670	0.15182	0.31876	0.72870	25.9	13111	100
2025-5-25 10:27:59.357	WT901BLE68(801231B9234C)	-0.251	1.173	0.081	130.005	253.967	-161.377	27.16	24.72	36.89	20.874	17.738	-28.224	0.58670	0.15182	0.31876	0.72870	25.9	13111	100
2025-5-25 10:27:59.415	WT901BLE68(801231B9234C)	0.819	1.476	0.056	128.845	21.301	-143.250	29.48	28.39	34.94	20.874	17.738	-28.224	0.58670	0.15182	0.31876	0.72870	25.9	13111	100
2025-5-25 10:27:59.415	WT901BLE68(801231B9234C)	1.792	1.375	-0.534	104.065	-110.596	-141.418	30.34	28.75	31.33	20.874	17.738	-28.224	0.58670	0.15182	0.31876	0.72870	25.9	13111	100
2025-5-25 10:27:59.444	WT901BLE68(801231B9234C)	1.351	1.272	-0.948	118.164	-133.606	-146.057	31.24	28.41	27.00	20.874	17.738	-28.224	0.58670	0.15182	0.31876	0.72870	25.9	13111	100
2025-5-25 10:27:59.444	WT901BLE68(801231B9234C)	0.531	0.964	-1.024	70.007	-38.635	-5.005	32.47	27.70	25.02	20.874	17.738	-28.224	0.58670	0.15182	0.31876	0.72870	25.9	13111	100
2025-5-25 10:27:59.475	WT901BLE68(801231B9234C)	1.097	1.215	-0.729	53.894	91.980	178.711	35.88	27.05	28.06	20.874	17.738	-28.224	0.58670	0.15182	0.31876	0.72870	25.9	13111	100
2025-5-25 10:27:59.475	WT901BLE68(801231B9234C)	0.648	1.183	-0.502	25.269	142.517	380.920	40.39	24.93	35.53	20.874	17.738	-28.224	0.58670	0.15182	0.31876	0.72870	25.9	13111	100
2025-5-25 10:27:59.568	WT901BLE68(801231B9234C)	-0.614	1.490	-0.278	15.259	210.083	411.011	45.04	21.67	44.77	20.874	17.738	-28.224	0.58670	0.15182	0.31876	0.72870	25.9	13111	100
2025-5-25 10:27:59.569	WT901BLE68(801231B9234C)	-4.701	2.442	0.134	-46.143	224.243	487.549	48.89	17.64	54.85	20.874	17.738	-28.224	0.58670	0.15182	0.31876	0.72870	25.9	13111	100
2025-5-25 10:27:59.570	WT901BLE68(801231B9234C)	-3.943	3.111	0.369	-285.034	54.871	409.912	46.97	12.10	62.53	20.874	17.738	-28.224	0.79355	0.29175	0.27734	0.45621	25.9	13111	100
2025-5-25 10:27:59.570	WT901BLE68(801231B9234C)	-3.856	0.916	1.313	20.630	-119.812	528.748	46.06	4.20	68.49	20.874	17.738	-28.224	0.79355	0.29175	0.27734	0.45621	25.9	13111	100
2025-5-25 10:27:59.624	WT901BLE68(801231B9234C)	-4.110	2.888	1.724	-60.242	247.620	259.399	46.75	0.13	74.81	20.874	17.738	-28.224	0.79355	0.29175	0.27734	0.45621	25.9	13111	100
2025-5-25 10:27:59.624	WT901BLE68(801231B9234C)	-2.475	0.614	1.716	-49.011	241.699	151.306	45.81	1.93	80.71	20.874	17.738	-28.224	0.79355	0.29175	0.27734	0.45621	25.9	13111	100
2025-5-25 10:27:59.654	WT901BLE68(801231B9234C)	-1.481	-0.019	1.167	8.545	94.849	126.343	46.29	2.31	84.02	20.874	17.738	-28.224	0.79355	0.29175	0.27734	0.45621	25.9	13111	100
2025-5-25 10:27:59.655	WT901BLE68(801231B9234C)	-0.933	-0.310	0.816	-13.916	78.857	128.906	46.72	2.02	86.24	20.874	17.738	-28.224	0.79355	0.29175	0.27734	0.45621	25.9	13111	100
2025-5-25 10:27:59.686	WT901BLE68(801231B9234C)	-0.654	-0.732	0.790	-41.260	95.215	121.521	46.52	1.95	88.62	20.874	17.738	-28.224	0.79355	0.29175	0.27734	0.45621	25.9	13111	100
2025-5-25 10:27:59.687	WT901BLE68(801231B9234C)	-0.459	-0.917	0.704	-72.144	90.942	111.145	45.71	2.20	90.99	20.874	17.738	-28.224	0.79355	0.29175	0.27734	0.45621	25.9	13111	100
2025-5-25 10:27:59.717	WT901BLE68(801231B9234C)	-0.310	-1.146	0.605	-93.323	67.688	90.332	43.61	2.37	93.96	20.874	17.738	-28.224	0.79355	0.29175	0.27734	0.45621	25.9	13111	100
2025-5-25 10:27:59.717	WT901BLE68(801231B9234C)	-0.173	-1.390	0.586	-108.337	39.246	66.772	40.92	2.47	96.57	40.180	-11.564	-14.994	0.79355	0.29175	0.27734	0.45621	25.9	13111	100
2025-5-25 10:27:59.774	WT901BLE68(801231B9234C)	-0.240	-1.672	0.439	-97.717	1.160	29.358	38.18	2.36	98.12	40.180	-11.564	-14.994	0.79355	0.29175	0.27734	0.45621	25.9	13111	100
2025-5-25 10:27:59.775	WT901BLE68(801231B9234C)	-0.477	-2.247	0.183	-74.829	4.761	-26.855	35.54	2.65	98.58	40.180	-11.564	-14.994	0.79355	0.29175	0.27734	0.45621	25.9	13111	100
2025-5-25 10:27:59.805	WT901BLE68(801231B9234C)	-0.879	-1.770	0.339	-3.906	36.255	-99.060	33.96	4.05	98.27	40.180	-11.564	-14.994	0.79355	0.29175	0.27734	0.45621	25.9	13111	100
2025-5-25 10:27:59.805	WT901BLE68(801231B9234C)	-1.222	-1.086	0.732	17.883	-15.381	-195.801	33.07	6.06	96.23	40.180	-11.564	-14.994	0.79355	0.29175	0.27734	0.45621	25.9	13111	100
2025-5-25 10:27:59.834	WT901BLE68(801231B9234C)	-1.509	-0.666	0.726	13.977	-119.446	-320.313	31.70	7.81	91.05	40.180	-11.564	-14.994	0.79355	0.29175	0.27734	0.45621	25.9	13111	100
2025-5-25 10:27:59.834	WT901BLE68(801231B9234C)	-1.974	-0.382	0.588	35.400	-152.649	-356.323	30.33	8.95	84.08	40.180	-11.564	-14.994	0.79355	0.29175	0.27734	0.45621	25.9	13111	100
2025-5-25 10:27:59.897	WT901BLE68(801231B9234C)	-3.089	-0.516	0.800	44.373	-158.630	-375.244	29.06	10.06	76.63	40.180	-11.564	-14.994	0.79355	0.29175	0.27734	0.45621	25.9	13111	100
2025-5-25 10:27:59.897	WT901BLE68(801231B9234C)	-4.771	-0.363	1.557	8.789	-207.642	-365.967	27.43	10.41	68.93	40.180	-11.564	-14.994	0.79355	0.29175	0.27734	0.45621	25.9	13111	100
2025-5-25 10:27:59.927	WT901BLE68(801231B9234C)	-3.537	0.583	2.002	-56.641	-363.464	-304.993	24.24	8.08	61.00	40.180	-11.564	-14.994	0.79355	0.29175	0.27734	0.45621	25.9	13111	100
2025-5-25 10:27:59.927	WT901BLE68(801231B9234C)	-2.109	1.113	1.705	-45.898	-340.515	-282.532	22.33	3.96	52.82	40.180	-11.564	-14.994	0.89456	0.17148	0.09708	0.40103	25.9	13111	100
2025-5-25 10:27:59.956	WT901BLE68(801231B9234C)	-1.083	3.386	0.742	-10.132	-132.751	-191.284	22.20	1.95	46.07	40.180	-11.564	-14.994	0.89456	0.17148	0.09708	0.40103	25.9	13111	100
2025-5-25 10:27:59.956	WT901BLE68(801231B9234C)	-0.793	1.593	0.162	-68.726	185.120	-160.645	21.48	5.24	43.22	40.180	-11.564	-14.994	0.89456	0.17148	0.09708	0.40103	25.9	13111	100
2025-5-25 10:28:0.14	WT901BLE68(801231B9234C)	-0.398	0.837	-0.281	24.292	351.990	-122.131	21.57	12.45	42.52	40.180	-11.564	-14.994	0.89456	0.17148	0.09708	0.40103	25.9	13111	100
2025-5-25 10:28:0.15	WT901BLE68(801231B9234C)	-0.331	0.724	-0.276	88.684	332.092	-77.332	23.54	20.09	43.20	40.180	-11.564	-14.994	0.89456	0.17148	0.09708	0.40103	25.9	13111	100
2025-5-25 10:28:0.45	WT901BLE68(801231B9234C)	0.161	0.773	-0.143	109.070	161.255	-77.209	26.13	25.36	43.54	40.180	-11.564	-14.994	0.89456	0.17148	0.09708	0.40103	25.9	13111	100
2025-5-25 10:28:0.45	WT901BLE68(801231B9234C)	0.747	0.773	-0.276	126.709	-21.729	-48.706	28.59	26.94	42.53	40.180	-11.564	-14.994	0.89456	0.17148	0.09708	0.40103	25.9	13111	100
2025-5-25 10:28:0.74	WT901BLE68(801231B9234C)	1.369	0.771	-0.888	126.831	-88.745	-41.931	30.78	26.39	40.81	40.180	-11.564	-14.994	0.89456	0.17148	0.09708	0.40103	25.9	13111	100
2025-5-25 10:28:0.74	WT901BLE68(801231B9234C)	1.460	1.200	-1.002	129.517	-97.473	5.798	33.36	25.23	39.44	40.180	-11.564	-14.994	0.89456	0.17148	0.09708	0.40103	25.9	13111	100
2025-5-25 10:28:0.135	WT901BLE68(801231B9234C)	0.932	1.681	-1.000	109.375	-44.189	96.558	36.49	23.40	39.81	40.180	-11.564	-14.994	0.89456	0.17148	0.09708	0.40103	25.9	13111	100
2025-5-25 10:28:0.135	WT901BLE68(801231B9234C)	0.666	1.881	-0.775	113.953	79.346	199.219	40.91	21.81	43.24	40.180	-11.564	-14.994	0.89456	0.17148	0.09708	0.40103	25.9	13111	100
