time	DeviceName	AccX(g)	AccY(g)	AccZ(g)	AsX(°/s)	AsY(°/s)	AsZ(°/s)	AngleX(°)	AngleY(°)	AngleZ(°)	HX(uT)	HY(uT)	HZ(uT)	Q0()	Q1()	Q2()	Q3()	Temperature(°C)	Version()	Battery level(%)
2025-5-25 10:12:10.441	WT901BLE68(801231B9234C)	0.074	0.803	0.270	4.639	-48.035	-70.801	60.27	59.00	-43.09	10.976	-31.066	-25.578	0.65884	0.60803	0.15460	-0.41498	24.2	13111	100
2025-5-25 10:12:10.441	WT901BLE68(801231B9234C)	0.002	0.864	0.299	6.958	-37.842	-39.185	58.95	59.11	-44.30	10.976	-31.066	-25.578	0.65884	0.60803	0.15460	-0.41498	24.2	13111	100
2025-5-25 10:12:10.485	WT901BLE68(801231B9234C)	-0.047	1.001	0.326	12.817	-22.888	-6.714	58.78	58.78	-44.28	10.976	-31.066	-25.578	0.65884	0.60803	0.15460	-0.41498	24.2	13111	100
2025-5-25 10:12:10.485	WT901BLE68(801231B9234C)	-0.012	1.133	0.314	18.921	-16.724	29.480	59.62	57.94	-43.24	19.012	-14.994	-32.536	0.65884	0.60803	0.15460	-0.41498	24.2	13111	100
2025-5-25 10:12:10.529	WT901BLE68(801231B9234C)	0.001	1.203	0.237	27.527	-11.902	63.721	61.23	56.51	-41.46	19.012	-14.994	-32.536	0.65884	0.60803	0.15460	-0.41498	24.2	13111	100
2025-5-25 10:12:10.530	WT901BLE68(801231B9234C)	0.028	1.353	0.098	35.889	8.240	93.018	63.70	54.66	-38.90	19.012	-14.994	-32.536	0.65884	0.60803	0.15460	-0.41498	24.2	13111	100
2025-5-25 10:12:10.575	WT901BLE68(801231B9234C)	0.088	1.548	-0.052	42.480	45.227	126.404	67.16	52.41	-35.27	19.012	-14.994	-32.536	0.65884	0.60803	0.15460	-0.41498	24.2	13111	100
2025-5-25 10:12:10.575	WT901BLE68(801231B9234C)	0.035	1.596	-0.179	45.593	99.304	153.809	71.64	49.81	-30.36	19.012	-14.994	-32.536	0.65884	0.60803	0.15460	-0.41498	24.2	13111	100
2025-5-25 10:12:10.620	WT901BLE68(801231B9234C)	-0.175	1.620	-0.202	56.885	162.354	175.354	77.13	46.88	-24.14	19.012	-14.994	-32.536	0.65884	0.60803	0.15460	-0.41498	24.2	13111	100
2025-5-25 10:12:10.620	WT901BLE68(801231B9234C)	-0.519	1.768	-0.100	58.289	205.200	195.313	83.03	43.36	-17.19	19.012	-14.994	-32.536	0.65884	0.60803	0.15460	-0.41498	24.2	13111	100
2025-5-25 10:12:10.643	WT901BLE68(801231B9234C)	-0.832	1.912	0.013	45.654	198.059	214.478	88.06	39.12	-10.80	19.012	-14.994	-32.536	0.65884	0.60803	0.15460	-0.41498	24.2	13111	100
2025-5-25 10:12:10.643	WT901BLE68(801231B9234C)	-1.146	2.007	0.073	25.269	152.222	248.535	91.33	34.07	-6.09	19.012	-14.994	-32.536	0.65884	0.60803	0.15460	-0.41498	24.2	13111	100
2025-5-25 10:12:10.688	WT901BLE68(801231B9234C)	-1.577	2.073	0.106	14.282	92.896	294.861	92.89	28.20	-3.33	19.012	-14.994	-32.536	0.65884	0.60803	0.15460	-0.41498	24.2	13111	100
2025-5-25 10:12:10.688	WT901BLE68(801231B9234C)	-1.801	2.264	0.239	13.794	55.664	321.350	93.55	21.72	-2.03	19.012	-14.994	-32.536	0.67160	0.72693	0.08768	-0.11276	24.2	13111	100
2025-5-25 10:12:10.732	WT901BLE68(801231B9234C)	-1.480	2.118	0.510	8.728	48.157	311.890	93.84	15.38	-1.27	19.012	-14.994	-32.536	0.67160	0.72693	0.08768	-0.11276	24.2	13111	100
2025-5-25 10:12:10.732	WT901BLE68(801231B9234C)	-1.445	1.808	0.729	10.193	88.806	273.010	94.07	9.62	-0.32	19.012	-14.994	-32.536	0.67160	0.72693	0.08768	-0.11276	24.2	13111	100
2025-5-25 10:12:10.777	WT901BLE68(801231B9234C)	-1.586	1.542	0.760	4.272	181.458	212.341	94.38	4.97	2.09	19.012	-14.994	-32.536	0.67160	0.72693	0.08768	-0.11276	24.2	13111	100
2025-5-25 10:12:10.777	WT901BLE68(801231B9234C)	-1.564	1.192	0.700	-21.973	230.591	174.011	94.24	1.26	5.81	19.012	-14.994	-32.536	0.67160	0.72693	0.08768	-0.11276	24.2	13111	100
2025-5-25 10:12:10.801	WT901BLE68(801231B9234C)	-1.416	0.791	0.572	-48.828	228.516	148.132	93.37	-1.75	9.70	19.012	-14.994	-32.536	0.67160	0.72693	0.08768	-0.11276	24.2	13111	100
2025-5-25 10:12:10.802	WT901BLE68(801231B9234C)	-1.413	0.348	0.437	-71.228	209.534	126.465	91.93	-4.13	13.25	19.012	-14.994	-32.536	0.67160	0.72693	0.08768	-0.11276	24.2	13111	100
2025-5-25 10:12:10.845	WT901BLE68(801231B9234C)	-1.509	-0.154	0.352	-88.135	175.232	96.375	90.10	-5.82	16.25	19.012	-14.994	-32.536	0.67160	0.72693	0.08768	-0.11276	24.2	13111	100
2025-5-25 10:12:10.845	WT901BLE68(801231B9234C)	-1.523	-0.570	0.318	-97.168	117.004	72.449	88.18	-6.83	18.27	19.012	-14.994	-32.536	0.67160	0.72693	0.08768	-0.11276	24.2	13111	100
2025-5-25 10:12:10.892	WT901BLE68(801231B9234C)	-1.345	-0.991	0.338	-88.623	40.771	21.973	86.56	-6.93	18.85	19.012	-14.994	-32.536	0.67160	0.72693	0.08768	-0.11276	24.2	13111	100
2025-5-25 10:12:10.892	WT901BLE68(801231B9234C)	-1.175	-1.096	0.268	-76.904	-17.639	-32.593	85.44	-5.92	18.03	10.878	-34.496	-23.814	0.67160	0.72693	0.08768	-0.11276	24.2	13111	100
2025-5-25 10:12:10.937	WT901BLE68(801231B9234C)	-1.200	-1.265	0.189	-78.308	-43.518	-75.745	84.61	-4.10	16.51	10.878	-34.496	-23.814	0.67160	0.72693	0.08768	-0.11276	24.2	13111	100
2025-5-25 10:12:10.938	WT901BLE68(801231B9234C)	-1.339	-0.803	0.072	-48.584	-51.331	-140.015	84.10	-1.03	14.65	10.878	-34.496	-23.814	0.67160	0.72693	0.08768	-0.11276	24.2	13111	100
2025-5-25 10:12:10.980	WT901BLE68(801231B9234C)	-1.455	-0.360	0.003	-32.166	-76.782	-183.838	83.89	3.06	12.37	10.878	-34.496	-23.814	0.67160	0.72693	0.08768	-0.11276	24.2	13111	100
2025-5-25 10:12:10.981	WT901BLE68(801231B9234C)	-1.644	0.022	0.029	-19.348	-110.229	-224.915	83.72	7.95	9.42	10.878	-34.496	-23.814	0.67160	0.72693	0.08768	-0.11276	24.2	13111	100
2025-5-25 10:12:11.4	WT901BLE68(801231B9234C)	-1.832	0.585	0.083	-20.020	-131.592	-224.854	83.30	13.08	5.89	10.878	-34.496	-23.814	0.67160	0.72693	0.08768	-0.11276	24.2	13111	100
2025-5-25 10:12:11.4	WT901BLE68(801231B9234C)	-2.211	0.967	0.235	-26.489	-145.386	-217.468	82.30	17.84	1.98	10.878	-34.496	-23.814	0.67160	0.72693	0.08768	-0.11276	24.2	13111	100
2025-5-25 10:12:11.47	WT901BLE68(801231B9234C)	-1.980	1.685	0.342	-25.208	-160.278	-224.304	80.72	22.45	-2.38	10.878	-34.496	-23.814	0.67160	0.72693	0.08768	-0.11276	24.2	13111	100
2025-5-25 10:12:11.47	WT901BLE68(801231B9234C)	-1.482	2.511	0.327	-6.592	-177.734	-244.202	78.73	27.04	-7.40	10.878	-34.496	-23.814	0.67160	0.72693	0.08768	-0.11276	24.2	13111	100
2025-5-25 10:12:11.92	WT901BLE68(801231B9234C)	-1.274	2.467	0.370	5.066	-131.287	-268.555	76.65	31.84	-12.36	10.878	-34.496	-23.814	0.67160	0.72693	0.08768	-0.11276	24.2	13111	100
2025-5-25 10:12:11.93	WT901BLE68(801231B9234C)	-0.959	2.481	0.540	25.818	-87.769	-272.095	74.88	36.86	-16.46	10.878	-34.496	-23.814	0.70361	0.60501	0.17422	-0.32925	24.2	13111	100
2025-5-25 10:12:11.139	WT901BLE68(801231B9234C)	-0.699	2.477	0.477	45.166	-62.439	-273.315	73.42	41.86	-20.15	10.878	-34.496	-23.814	0.70361	0.60501	0.17422	-0.32925	24.2	13111	100
2025-5-25 10:12:11.139	WT901BLE68(801231B9234C)	-0.292	2.265	0.320	58.411	-43.640	-255.798	72.19	46.59	-23.48	10.878	-34.496	-23.814	0.70361	0.60501	0.17422	-0.32925	24.2	13111	100
2025-5-25 10:12:11.183	WT901BLE68(801231B9234C)	0.098	1.989	0.191	70.129	-25.940	-233.154	71.30	50.84	-26.35	10.878	-34.496	-23.814	0.70361	0.60501	0.17422	-0.32925	24.2	13111	100
2025-5-25 10:12:11.183	WT901BLE68(801231B9234C)	0.266	1.688	0.047	78.491	1.648	-218.933	70.97	54.79	-28.49	10.878	-34.496	-23.814	0.70361	0.60501	0.17422	-0.32925	24.2	13111	100
2025-5-25 10:12:11.214	WT901BLE68(801231B9234C)	0.388	1.375	-0.048	90.820	43.152	-207.642	71.90	58.68	-29.21	10.878	-34.496	-23.814	0.70361	0.60501	0.17422	-0.32925	24.2	13111	100
2025-5-25 10:12:11.214	WT901BLE68(801231B9234C)	0.481	1.053	-0.117	93.872	71.960	-182.434	74.44	62.33	-28.11	10.878	-34.496	-23.814	0.70361	0.60501	0.17422	-0.32925	24.2	13111	100
2025-5-25 10:12:11.251	WT901BLE68(801231B9234C)	0.571	0.814	-0.100	99.426	106.934	-168.030	79.27	65.62	-24.57	10.878	-34.496	-23.814	0.70361	0.60501	0.17422	-0.32925	24.2	13111	100
2025-5-25 10:12:11.251	WT901BLE68(801231B9234C)	0.596	0.770	-0.088	88.989	126.526	-153.503	86.54	68.54	-18.30	10.878	-34.496	-23.814	0.70361	0.60501	0.17422	-0.32925	24.2	13111	100
2025-5-25 10:12:11.295	WT901BLE68(801231B9234C)	0.453	0.886	-0.118	65.369	151.672	-124.573	96.47	70.52	-8.84	10.878	-34.496	-23.814	0.70361	0.60501	0.17422	-0.32925	24.2	13111	100
2025-5-25 10:12:11.295	WT901BLE68(801231B9234C)	0.243	0.934	-0.232	26.489	177.368	-59.326	107.91	70.53	2.89	10.878	-34.496	-23.814	0.70361	0.60501	0.17422	-0.32925	24.2	13111	100
2025-5-25 10:12:11.340	WT901BLE68(801231B9234C)	0.100	0.899	-0.219	-3.479	166.809	-22.034	117.42	68.97	13.37	28.518	-15.288	-25.284	0.70361	0.60501	0.17422	-0.32925	24.2	13111	100
2025-5-25 10:12:11.341	WT901BLE68(801231B9234C)	-0.169	1.005	-0.051	-45.959	122.437	25.146	122.38	66.59	19.86	28.518	-15.288	-25.284	0.70361	0.60501	0.17422	-0.32925	24.2	13111	100
2025-5-25 10:12:11.385	WT901BLE68(801231B9234C)	-0.773	1.083	-0.015	-87.891	73.547	80.017	122.60	63.78	22.23	28.518	-15.288	-25.284	0.70361	0.60501	0.17422	-0.32925	24.2	13111	100
2025-5-25 10:12:11.385	WT901BLE68(801231B9234C)	-1.740	1.254	-0.190	-134.583	20.447	134.216	119.19	60.63	21.56	28.518	-15.288	-25.284	0.70361	0.60501	0.17422	-0.32925	24.2	13111	100
2025-5-25 10:12:11.415	WT901BLE68(801231B9234C)	-2.099	1.013	-0.307	-168.335	-70.313	223.633	112.27	57.05	17.81	28.518	-15.288	-25.284	0.70361	0.60501	0.17422	-0.32925	24.2	13111	100
2025-5-25 10:12:11.415	WT901BLE68(801231B9234C)	-1.776	1.341	0.066	-118.103	-94.727	321.777	104.64	51.84	12.22	28.518	-15.288	-25.284	0.70361	0.60501	0.17422	-0.32925	24.2	13111	100
2025-5-25 10:12:11.451	WT901BLE68(801231B9234C)	-2.130	1.134	0.630	-81.421	50.720	275.513	100.83	45.73	10.13	28.518	-15.288	-25.284	0.70361	0.60501	0.17422	-0.32925	24.2	13111	100
2025-5-25 10:12:11.451	WT901BLE68(801231B9234C)	-2.517	1.206	0.633	-75.439	198.486	165.833	101.06	41.07	13.21	28.518	-15.288	-25.284	0.70361	0.60501	0.17422	-0.32925	24.2	13111	100
2025-5-25 10:12:11.499	WT901BLE68(801231B9234C)	-2.285	0.663	0.503	-80.750	233.521	116.943	102.35	37.59	18.28	28.518	-15.288	-25.284	0.70361	0.60501	0.17422	-0.32925	24.2	13111	100
2025-5-25 10:12:11.499	WT901BLE68(801231B9234C)	-1.735	0.280	0.283	-80.261	154.846	86.670	102.86	35.10	22.03	28.518	-15.288	-25.284	0.70361	0.60501	0.17422	-0.32925	24.2	13111	100
2025-5-25 10:12:11.545	WT901BLE68(801231B9234C)	-1.335	0.046	0.128	-78.674	80.078	65.186	102.34	33.56	23.69	28.518	-15.288	-25.284	0.63055	0.69733	0.32718	-0.09467	24.2	13111	100
2025-5-25 10:12:11.545	WT901BLE68(801231B9234C)	-0.978	-0.194	0.100	-74.829	45.532	43.884	101.39	32.75	24.22	28.518	-15.288	-25.284	0.63055	0.69733	0.32718	-0.09467	24.2	13111	100
2025-5-25 10:12:11.567	WT901BLE68(801231B9234C)	-0.622	-0.417	0.122	-58.411	42.175	25.024	100.67	32.44	24.49	28.518	-15.288	-25.284	0.63055	0.69733	0.32718	-0.09467	24.2	13111	100
2025-5-25 10:12:11.568	WT901BLE68(801231B9234C)	-0.410	-0.598	0.194	-50.903	39.368	16.846	100.23	32.41	24.73	28.518	-15.288	-25.284	0.63055	0.69733	0.32718	-0.09467	24.2	13111	100
2025-5-25 10:12:11.615	WT901BLE68(801231B9234C)	-0.335	-0.778	0.287	-38.025	39.001	2.991	100.15	32.61	25.00	28.518	-15.288	-25.284	0.63055	0.69733	0.32718	-0.09467	24.2	13111	100
2025-5-25 10:12:11.615	WT901BLE68(801231B9234C)	-0.301	-0.967	0.335	-25.879	17.761	-29.968	100.35	33.42	25.11	28.518	-15.288	-25.284	0.63055	0.69733	0.32718	-0.09467	24.2	13111	100
2025-5-25 10:12:11.654	WT901BLE68(801231B9234C)	-0.333	-1.132	0.342	-1.709	-9.338	-74.280	100.85	35.18	24.90	28.518	-15.288	-25.284	0.63055	0.69733	0.32718	-0.09467	24.2	13111	100
2025-5-25 10:12:11.654	WT901BLE68(801231B9234C)	-0.309	-0.926	0.240	20.142	-34.790	-108.765	101.67	37.94	24.36	28.518	-15.288	-25.284	0.63055	0.69733	0.32718	-0.09467	24.2	13111	100
2025-5-25 10:12:11.701	WT901BLE68(801231B9234C)	-0.445	-0.760	0.125	42.725	-47.058	-128.174	102.84	41.22	23.70	28.518	-15.288	-25.284	0.63055	0.69733	0.32718	-0.09467	24.2	13111	100
2025-5-25 10:12:11.701	WT901BLE68(801231B9234C)	-0.802	-0.607	0.069	74.524	-49.805	-151.611	104.66	44.96	23.20	28.518	-15.288	-25.284	0.63055	0.69733	0.32718	-0.09467	24.2	13111	100
2025-5-25 10:12:11.745	WT901BLE68(801231B9234C)	-1.447	-0.431	0.013	95.886	-58.838	-177.979	107.21	49.20	23.03	34.888	-20.972	-17.248	0.63055	0.69733	0.32718	-0.09467	24.2	13111	100
2025-5-25 10:12:11.745	WT901BLE68(801231B9234C)	-2.661	-0.322	0.060	104.492	-88.806	-200.500	109.87	54.01	22.72	34.888	-20.972	-17.248	0.63055	0.69733	0.32718	-0.09467	24.2	13111	100
2025-5-25 10:12:11.770	WT901BLE68(801231B9234C)	-3.419	-0.084	0.234	98.206	-140.869	-214.417	111.81	59.29	21.64	34.888	-20.972	-17.248	0.63055	0.69733	0.32718	-0.09467	24.2	13111	100
2025-5-25 10:12:11.770	WT901BLE68(801231B9234C)	-3.622	0.511	0.149	95.947	-239.746	-193.481	109.64	65.06	16.27	34.888	-20.972	-17.248	0.63055	0.69733	0.32718	-0.09467	24.2	13111	100
2025-5-25 10:12:11.815	WT901BLE68(801231B9234C)	-2.824	1.032	0.013	49.133	-278.870	-228.821	101.88	70.95	5.91	34.888	-20.972	-17.248	0.63055	0.69733	0.32718	-0.09467	24.2	13111	100
2025-5-25 10:12:11.815	WT901BLE68(801231B9234C)	-1.666	1.299	0.055	76.050	-301.575	-243.958	84.06	76.37	-14.31	34.888	-20.972	-17.248	0.63055	0.69733	0.32718	-0.09467	24.2	13111	100
2025-5-25 10:12:11.857	WT901BLE68(801231B9234C)	-1.491	1.428	0.204	94.849	-146.057	-236.389	60.54	79.82	-40.34	34.888	-20.972	-17.248	0.63055	0.69733	0.32718	-0.09467	24.2	13111	100
2025-5-25 10:12:11.857	WT901BLE68(801231B9234C)	-1.456	1.274	0.311	93.994	23.682	-214.600	42.21	82.96	-60.64	34.888	-20.972	-17.248	0.63055	0.69733	0.32718	-0.09467	24.2	13111	100
2025-5-25 10:12:11.903	WT901BLE68(801231B9234C)	-0.888	1.267	0.124	114.380	64.392	-177.612	20.73	85.98	-84.18	34.888	-20.972	-17.248	0.63055	0.69733	0.32718	-0.09467	24.2	13111	100
2025-5-25 10:12:11.903	WT901BLE68(801231B9234C)	-0.381	1.216	-0.008	126.343	60.486	-130.249	-16.65	87.45	-123.79	34.888	-20.972	-17.248	0.63055	0.69733	0.32718	-0.09467	24.2	13111	100
2025-5-25 10:12:11.947	WT901BLE68(801231B9234C)	-0.160	1.034	-0.076	128.784	81.116	-99.060	-59.86	87.54	-169.23	34.888	-20.972	-17.248	0.39825	0.56168	0.41357	-0.59561	24.2	13111	100
2025-5-25 10:12:11.948	WT901BLE68(801231B9234C)	0.010	0.817	-0.072	129.028	103.333	-79.041	-95.65	86.66	152.84	34.888	-20.972	-17.248	0.39825	0.56168	0.41357	-0.59561	24.2	13111	100
2025-5-25 10:12:11.974	WT901BLE68(801231B9234C)	0.163	0.746	-0.060	119.324	101.440	-57.556	-117.14	85.22	129.41	34.888	-20.972	-17.248	0.39825	0.56168	0.41357	-0.59561	24.2	13111	100
2025-5-25 10:12:11.974	WT901BLE68(801231B9234C)	0.312	0.755	-0.096	104.614	98.816	-50.110	-129.54	83.57	115.38	34.888	-20.972	-17.248	0.39825	0.56168	0.41357	-0.59561	24.2	13111	100
2025-5-25 10:12:12.15	WT901BLE68(801231B9234C)	0.319	0.756	-0.058	74.341	93.445	-41.199	-137.92	81.82	105.90	34.888	-20.972	-17.248	0.39825	0.56168	0.41357	-0.59561	24.2	13111	100
2025-5-25 10:12:12.15	WT901BLE68(801231B9234C)	0.207	0.670	-0.019	37.354	93.262	-33.142	-144.83	80.01	98.61	34.888	-20.972	-17.248	0.39825	0.56168	0.41357	-0.59561	24.2	13111	100
2025-5-25 10:12:12.59	WT901BLE68(801231B9234C)	0.036	0.745	-0.070	-10.010	85.144	-3.479	-151.85	78.29	92.08	34.888	-20.972	-17.248	0.39825	0.56168	0.41357	-0.59561	24.2	13111	100
2025-5-25 10:12:12.59	WT901BLE68(801231B9234C)	-0.120	0.681	-0.083	-68.787	59.021	35.461	-160.89	77.05	84.62	34.888	-20.972	-17.248	0.39825	0.56168	0.41357	-0.59561	24.2	13111	100
2025-5-25 10:12:12.114	WT901BLE68(801231B9234C)	-0.615	0.743	-0.006	-115.723	27.405	62.927	-171.16	76.27	76.86	34.888	-20.972	-17.248	0.39825	0.56168	0.41357	-0.59561	24.2	13111	100
2025-5-25 10:12:12.114	WT901BLE68(801231B9234C)	-1.523	0.887	-0.171	-182.068	-8.728	92.651	176.48	75.84	68.13	34.888	-20.972	-17.248	0.39825	0.56168	0.41357	-0.59561	24.2	13111	100
2025-5-25 10:12:12.163	WT901BLE68(801231B9234C)	-2.203	0.926	-0.481	-234.924	-74.829	139.404	160.36	75.84	56.72	38.318	-6.468	-19.012	0.39825	0.56168	0.41357	-0.59561	24.2	13111	100
2025-5-25 10:12:12.163	WT901BLE68(801231B9234C)	-2.000	0.723	-0.371	-227.539	-121.460	223.328	137.98	75.37	39.09	38.318	-6.468	-19.012	0.39825	0.56168	0.41357	-0.59561	24.2	13111	100
2025-5-25 10:12:12.173	WT901BLE68(801231B9234C)	-2.459	1.282	0.073	-190.125	-19.470	297.607	118.08	71.48	23.23	38.318	-6.468	-19.012	0.39825	0.56168	0.41357	-0.59561	24.2	13111	100
2025-5-25 10:12:12.173	WT901BLE68(801231B9234C)	-2.916	0.925	0.612	-168.762	164.063	222.351	113.70	65.80	22.56	38.318	-6.468	-19.012	0.39825	0.56168	0.41357	-0.59561	24.2	13111	100
2025-5-25 10:12:12.218	WT901BLE68(801231B9234C)	-2.543	0.381	0.639	-156.067	187.927	147.217	114.21	61.09	27.19	38.318	-6.468	-19.012	0.39825	0.56168	0.41357	-0.59561	24.2	13111	100
2025-5-25 10:12:12.218	WT901BLE68(801231B9234C)	-2.042	-0.004	0.536	-128.357	118.835	121.399	113.71	57.63	30.03	38.318	-6.468	-19.012	0.39825	0.56168	0.41357	-0.59561	24.2	13111	100
2025-5-25 10:12:12.264	WT901BLE68(801231B9234C)	-1.612	-0.213	0.388	-118.774	47.302	96.497	111.77	55.36	30.66	38.318	-6.468	-19.012	0.39825	0.56168	0.41357	-0.59561	24.2	13111	100
2025-5-25 10:12:12.265	WT901BLE68(801231B9234C)	-1.193	-0.308	0.311	-104.004	-1.160	63.843	109.20	54.12	29.87	38.318	-6.468	-19.012	0.39825	0.56168	0.41357	-0.59561	24.2	13111	100
2025-5-25 10:12:12.332	WT901BLE68(801231B9234C)	-0.727	-0.354	0.235	-96.863	-46.448	49.377	105.99	53.71	27.88	38.318	-6.468	-19.012	0.39825	0.56168	0.41357	-0.59561	24.2	13111	100
2025-5-25 10:12:12.332	WT901BLE68(801231B9234C)	-0.339	-0.498	0.144	-88.989	-57.129	48.401	102.45	53.46	25.19	38.318	-6.468	-19.012	0.39825	0.56168	0.41357	-0.59561	24.2	13111	100
2025-5-25 10:12:12.332	WT901BLE68(801231B9234C)	-0.047	-0.574	0.097	-78.857	-38.452	44.983	99.53	53.20	22.89	38.318	-6.468	-19.012	0.63443	0.61569	0.41339	-0.21777	24.2	13111	100
2025-5-25 10:12:12.332	WT901BLE68(801231B9234C)	0.066	-0.877	0.096	-69.336	-7.629	34.424	97.58	52.88	21.56	38.318	-6.468	-19.012	0.63443	0.61569	0.41339	-0.21777	24.2	13111	100
2025-5-25 10:12:12.398	WT901BLE68(801231B9234C)	0.085	-0.932	0.140	-41.138	22.095	12.329	97.20	52.95	21.45	38.318	-6.468	-19.012	0.63443	0.61569	0.41339	-0.21777	24.2	13111	100
2025-5-25 10:12:12.398	WT901BLE68(801231B9234C)	0.053	-1.030	0.198	-10.986	30.884	-24.902	98.21	53.69	22.24	38.318	-6.468	-19.012	0.63443	0.61569	0.41339	-0.21777	24.2	13111	100
2025-5-25 10:12:12.603	WT901BLE68(801231B9234C)	0.051	-1.035	0.201	18.921	19.287	-60.120	100.05	55.24	23.24	38.318	-6.468	-19.012	0.63443	0.61569	0.41339	-0.21777	24.2	13111	100
2025-5-25 10:12:12.603	WT901BLE68(801231B9234C)	0.009	-0.914	0.161	45.776	18.066	-78.369	102.78	57.28	24.52	38.318	-6.468	-19.012	0.63443	0.61569	0.41339	-0.21777	24.2	13111	100
2025-5-25 10:12:12.603	WT901BLE68(801231B9234C)	-0.229	-0.737	0.101	84.045	34.973	-88.379	107.09	59.44	26.84	38.318	-6.468	-19.012	0.63443	0.61569	0.41339	-0.21777	24.2	13111	100
2025-5-25 10:12:12.603	WT901BLE68(801231B9234C)	-0.581	-0.675	0.034	112.610	25.940	-97.595	112.70	61.71	29.94	38.318	-6.468	-19.012	0.63443	0.61569	0.41339	-0.21777	24.2	13111	100
2025-5-25 10:12:12.603	WT901BLE68(801231B9234C)	-1.452	-0.686	0.044	133.667	5.188	-88.684	118.80	63.93	33.02	38.318	-6.468	-19.012	0.63443	0.61569	0.41339	-0.21777	24.2	13111	100
2025-5-25 10:12:12.604	WT901BLE68(801231B9234C)	-3.977	-0.799	0.217	147.034	38.513	-56.946	125.52	65.44	36.39	38.318	-6.468	-19.012	0.63443	0.61569	0.41339	-0.21777	24.2	13111	100
2025-5-25 10:12:12.604	WT901BLE68(801231B9234C)	-4.295	-0.322	-0.101	98.572	-64.026	-35.156	130.62	66.56	38.55	38.318	-6.468	-19.012	0.63443	0.61569	0.41339	-0.21777	24.2	13111	100
2025-5-25 10:12:12.604	WT901BLE68(801231B9234C)	-2.677	2.290	-1.038	129.089	-252.991	4.333	126.75	69.79	30.94	38.318	-6.468	-19.012	0.63443	0.61569	0.41339	-0.21777	24.2	13111	100
2025-5-25 10:12:12.604	WT901BLE68(801231B9234C)	-2.510	2.077	-0.153	58.838	-177.429	-80.933	117.97	72.82	20.35	38.318	-6.468	-19.012	0.63443	0.61569	0.41339	-0.21777	24.2	13111	100
2025-5-25 10:12:12.604	WT901BLE68(801231B9234C)	-2.384	1.583	0.069	107.117	117.981	-181.946	126.36	75.50	26.92	38.318	-6.468	-19.012	0.63443	0.61569	0.41339	-0.21777	24.2	13111	100
2025-5-25 10:12:12.622	WT901BLE68(801231B9234C)	-1.253	1.042	0.236	88.684	85.693	-166.260	143.16	75.99	42.57	38.318	-6.468	-19.012	0.63443	0.61569	0.41339	-0.21777	24.2	13111	100
2025-5-25 10:12:12.623	WT901BLE68(801231B9234C)	-0.617	0.952	0.157	111.267	-16.052	-134.705	155.52	77.31	53.38	38.318	-6.468	-19.012	0.63443	0.61569	0.41339	-0.21777	24.2	13111	100
2025-5-25 10:12:12.667	WT901BLE68(801231B9234C)	-0.415	0.936	0.041	105.774	-35.217	-134.155	166.90	78.76	63.17	38.318	-6.468	-19.012	0.63443	0.61569	0.41339	-0.21777	24.2	13111	100
2025-5-25 10:12:12.668	WT901BLE68(801231B9234C)	-0.129	0.756	-0.014	116.150	-27.710	-130.432	-179.75	79.70	75.01	38.318	-8.330	-20.678	0.63443	0.61569	0.41339	-0.21777	24.2	13111	100
2025-5-25 10:12:12.712	WT901BLE68(801231B9234C)	0.089	0.712	0.018	116.455	-34.363	-106.384	-166.93	80.01	86.25	38.318	-8.330	-20.678	0.63443	0.61569	0.41339	-0.21777	24.2	13111	100
2025-5-25 10:12:12.713	WT901BLE68(801231B9234C)	0.282	0.728	-0.020	103.577	-43.579	-87.524	-156.19	80.23	95.59	38.318	-8.330	-20.678	0.63443	0.61569	0.41339	-0.21777	24.2	13111	100
2025-5-25 10:12:12.735	WT901BLE68(801231B9234C)	0.525	0.769	-0.083	81.421	-47.302	-73.364	-147.22	80.36	103.60	38.318	-8.330	-20.678	0.34552	0.59772	0.46353	-0.55533	24.2	13111	100
2025-5-25 10:12:12.736	WT901BLE68(801231B9234C)	0.677	0.810	-0.065	49.438	-28.442	-54.871	-141.44	80.34	108.93	38.318	-8.330	-20.678	0.34552	0.59772	0.46353	-0.55533	24.2	13111	100
2025-5-25 10:12:12.781	WT901BLE68(801231B9234C)	0.574	0.760	-0.003	4.028	16.357	-35.706	-141.30	79.94	109.42	38.318	-8.330	-20.678	0.34552	0.59772	0.46353	-0.55533	24.2	13111	100
2025-5-25 10:12:12.781	WT901BLE68(801231B9234C)	0.390	0.826	-0.051	-54.199	73.425	7.324	-148.71	78.98	103.24	38.318	-8.330	-20.678	0.34552	0.59772	0.46353	-0.55533	24.2	13111	100
2025-5-25 10:12:12.824	WT901BLE68(801231B9234C)	0.059	0.845	-0.123	-112.915	110.229	43.762	-161.44	77.32	92.85	38.318	-8.330	-20.678	0.34552	0.59772	0.46353	-0.55533	24.2	13111	100
2025-5-25 10:12:12.824	WT901BLE68(801231B9234C)	-0.713	0.996	-0.118	-179.321	116.333	83.923	-175.23	75.01	82.45	38.318	-8.330	-20.678	0.34552	0.59772	0.46353	-0.55533	24.2	13111	100
2025-5-25 10:12:12.869	WT901BLE68(801231B9234C)	-2.652	1.006	-0.551	-258.728	114.014	127.563	170.23	72.17	72.70	38.318	-8.330	-20.678	0.34552	0.59772	0.46353	-0.55533	24.2	13111	100
2025-5-25 10:12:12.869	WT901BLE68(801231B9234C)	-3.524	0.959	-1.332	-305.725	98.816	163.879	156.83	68.76	65.34	38.318	-8.330	-20.678	0.34552	0.59772	0.46353	-0.55533	24.2	13111	100
2025-5-25 10:12:12.914	WT901BLE68(801231B9234C)	-2.230	1.077	-1.280	-225.281	45.715	414.551	139.28	63.14	51.84	38.318	-8.330	-20.678	0.34552	0.59772	0.46353	-0.55533	24.2	13111	100
2025-5-25 10:12:12.915	WT901BLE68(801231B9234C)	-1.884	0.378	0.049	-193.481	114.075	405.273	126.67	55.70	42.48	38.318	-8.330	-20.678	0.34552	0.59772	0.46353	-0.55533	24.2	13111	100
2025-5-25 10:12:12.938	WT901BLE68(801231B9234C)	-3.416	1.017	0.379	-181.519	225.708	165.100	123.38	49.34	42.92	41.258	-6.566	-15.778	0.34552	0.59772	0.46353	-0.55533	24.2	13111	100
2025-5-25 10:12:12.938	WT901BLE68(801231B9234C)	-2.257	0.380	0.212	-156.860	154.236	39.978	122.48	46.11	46.61	41.258	-6.566	-15.778	0.34552	0.59772	0.46353	-0.55533	24.2	13111	100
2025-5-25 10:12:12.982	WT901BLE68(801231B9234C)	-1.643	-0.090	0.030	-139.771	9.827	31.006	119.99	45.20	47.37	41.258	-6.566	-15.778	0.34552	0.59772	0.46353	-0.55533	24.2	13111	100
2025-5-25 10:12:12.982	WT901BLE68(801231B9234C)	-1.307	-0.349	-0.157	-109.009	-40.100	21.606	116.73	45.38	46.13	41.258	-6.566	-15.778	0.34552	0.59772	0.46353	-0.55533	24.2	13111	100
2025-5-25 10:12:13.27	WT901BLE68(801231B9234C)	-0.987	-0.490	-0.081	-85.632	-56.641	14.771	114.14	45.86	44.51	41.258	-6.566	-15.778	0.34552	0.59772	0.46353	-0.55533	24.2	13111	100
2025-5-25 10:12:13.27	WT901BLE68(801231B9234C)	-0.569	-0.581	-0.037	-78.552	-63.049	23.743	111.43	46.36	42.30	41.258	-6.566	-15.778	0.34552	0.59772	0.46353	-0.55533	24.2	13111	100
2025-5-25 10:12:13.72	WT901BLE68(801231B9234C)	-0.204	-0.763	0.071	-63.721	-40.527	22.278	109.23	46.68	40.36	41.258	-6.566	-15.778	0.34552	0.59772	0.46353	-0.55533	24.2	13111	100
2025-5-25 10:12:13.73	WT901BLE68(801231B9234C)	-0.022	-0.935	0.187	-36.499	-0.732	4.333	108.36	46.98	39.47	41.258	-6.566	-15.778	0.34552	0.59772	0.46353	-0.55533	24.2	13111	100
2025-5-25 10:12:13.117	WT901BLE68(801231B9234C)	0.038	-1.057	0.293	-5.798	45.898	-24.841	109.31	47.50	40.09	41.258	-6.566	-15.778	0.34552	0.59772	0.46353	-0.55533	24.2	13111	100
2025-5-25 10:12:13.117	WT901BLE68(801231B9234C)	0.085	-1.165	0.331	34.729	108.154	-71.411	112.62	48.37	42.79	41.258	-6.566	-15.778	0.34552	0.59772	0.46353	-0.55533	24.2	13111	100
2025-5-25 10:12:13.141	WT901BLE68(801231B9234C)	-0.117	-1.126	0.238	74.219	155.273	-99.548	118.65	49.24	47.83	41.258	-6.566	-15.778	0.54904	0.63663	0.52237	-0.14240	24.2	13111	100
2025-5-25 10:12:13.141	WT901BLE68(801231B9234C)	-0.460	-1.026	0.164	123.657	152.893	-123.901	126.51	49.90	54.06	41.258	-6.566	-15.778	0.54904	0.63663	0.52237	-0.14240	24.2	13111	100
2025-5-25 10:12:13.185	WT901BLE68(801231B9234C)	-0.875	-0.744	0.089	157.104	52.917	-146.729	134.68	51.11	59.54	41.258	-6.566	-15.778	0.54904	0.63663	0.52237	-0.14240	24.2	13111	100
2025-5-25 10:12:13.185	WT901BLE68(801231B9234C)	-1.787	-0.510	-0.059	174.683	-71.411	-159.546	142.19	53.83	63.35	41.258	-6.566	-15.778	0.54904	0.63663	0.52237	-0.14240	24.2	13111	100
2025-5-25 10:12:13.229	WT901BLE68(801231B9234C)	-3.042	-0.493	-0.287	165.222	-144.775	-150.391	148.61	57.86	65.78	41.258	-6.566	-15.778	0.54904	0.63663	0.52237	-0.14240	24.2	13111	100
2025-5-25 10:12:13.229	WT901BLE68(801231B9234C)	-3.511	-0.752	-0.078	141.541	-205.017	-121.094	154.37	62.12	67.85	41.258	-6.566	-15.778	0.54904	0.63663	0.52237	-0.14240	24.2	13111	100
2025-5-25 10:12:13.274	WT901BLE68(801231B9234C)	-3.848	0.132	-0.492	157.471	-265.076	-109.741	158.52	67.98	68.09	41.258	-6.566	-15.778	0.54904	0.63663	0.52237	-0.14240	24.2	13111	100
2025-5-25 10:12:13.274	WT901BLE68(801231B9234C)	-3.499	0.956	-0.469	80.322	-159.668	-171.021	165.65	72.75	72.84	41.258	-6.566	-15.778	0.54904	0.63663	0.52237	-0.14240	24.2	13111	100
2025-5-25 10:12:13.298	WT901BLE68(801231B9234C)	-2.223	1.485	-0.160	69.275	-150.146	-201.843	179.43	76.35	85.50	41.258	-6.566	-15.778	0.54904	0.63663	0.52237	-0.14240	24.2	13111	100
2025-5-25 10:12:13.298	WT901BLE68(801231B9234C)	-1.448	1.149	-0.317	51.697	-85.388	-213.196	-160.21	78.06	105.34	41.258	-6.566	-15.778	0.54904	0.63663	0.52237	-0.14240	24.2	13111	100
2025-5-25 10:12:13.343	WT901BLE68(801231B9234C)	-0.893	0.969	-0.384	73.425	-5.188	-161.377	-144.24	76.98	120.75	38.710	2.646	-18.914	0.54904	0.63663	0.52237	-0.14240	24.2	13111	100
2025-5-25 10:12:13.343	WT901BLE68(801231B9234C)	-0.519	1.010	-0.353	105.042	44.006	-93.750	-137.47	75.22	126.17	38.710	2.646	-18.914	0.54904	0.63663	0.52237	-0.14240	24.2	13111	100
2025-5-25 10:12:13.387	WT901BLE68(801231B9234C)	-0.325	0.857	-0.208	125.793	73.486	-49.866	-135.99	73.59	125.71	38.710	2.646	-18.914	0.54904	0.63663	0.52237	-0.14240	24.2	13111	100
2025-5-25 10:12:13.387	WT901BLE68(801231B9234C)	-0.078	0.721	-0.082	130.127	63.721	-24.841	-136.09	72.31	123.47	38.710	2.646	-18.914	0.54904	0.63663	0.52237	-0.14240	24.2	13111	100
2025-5-25 10:12:13.432	WT901BLE68(801231B9234C)	0.212	0.745	-0.006	121.521	26.001	-2.197	-136.10	71.78	121.44	38.710	2.646	-18.914	0.54904	0.63663	0.52237	-0.14240	24.2	13111	100
2025-5-25 10:12:13.432	WT901BLE68(801231B9234C)	0.469	0.721	-0.051	117.249	1.038	3.418	-135.66	71.97	120.21	38.710	2.646	-18.914	0.54904	0.63663	0.52237	-0.14240	24.2	13111	100
2025-5-25 10:12:13.477	WT901BLE68(801231B9234C)	0.612	0.730	-0.134	97.168	-17.456	3.601	-135.05	72.33	119.36	38.710	2.646	-18.914	0.54904	0.63663	0.52237	-0.14240	24.2	13111	100
2025-5-25 10:12:13.477	WT901BLE68(801231B9234C)	0.599	0.688	-0.198	41.321	-29.907	23.926	-135.35	73.14	118.51	38.710	2.646	-18.914	0.54904	0.63663	0.52237	-0.14240	24.2	13111	100
2025-5-25 10:12:13.501	WT901BLE68(801231B9234C)	0.429	0.587	-0.157	-22.827	-6.287	59.875	-139.49	74.12	114.90	38.710	2.646	-18.914	0.54904	0.63663	0.52237	-0.14240	24.2	13111	100
2025-5-25 10:12:13.501	WT901BLE68(801231B9234C)	0.237	0.674	-0.242	-86.182	14.954	109.741	-149.49	75.09	106.53	38.710	2.646	-18.914	0.54904	0.63663	0.52237	-0.14240	24.2	13111	100
2025-5-25 10:12:13.545	WT901BLE68(801231B9234C)	-0.122	0.849	-0.267	-137.207	31.250	144.653	-164.95	75.43	93.60	38.710	2.646	-18.914	0.38177	0.60352	0.51672	-0.47214	24.2	13111	100
2025-5-25 10:12:13.545	WT901BLE68(801231B9234C)	-1.084	1.250	-0.269	-215.149	25.146	203.308	174.62	74.75	76.92	38.710	2.646	-18.914	0.38177	0.60352	0.51672	-0.47214	24.2	13111	100
2025-5-25 10:12:13.589	WT901BLE68(801231B9234C)	-3.660	1.063	-0.313	-294.189	11.963	196.533	154.40	72.73	61.87	38.710	2.646	-18.914	0.38177	0.60352	0.51672	-0.47214	24.2	13111	100
2025-5-25 10:12:13.590	WT901BLE68(801231B9234C)	-2.899	1.308	-0.637	-334.229	35.156	263.855	137.93	69.46	51.79	38.710	2.646	-18.914	0.38177	0.60352	0.51672	-0.47214	24.2	13111	100
2025-5-25 10:12:13.634	WT901BLE68(801231B9234C)	-2.679	0.435	-0.443	-239.868	-72.021	363.831	120.26	64.36	39.15	38.710	2.646	-18.914	0.38177	0.60352	0.51672	-0.47214	24.2	13111	100
2025-5-25 10:12:13.635	WT901BLE68(801231B9234C)	-3.651	0.986	0.117	-196.289	218.384	215.820	114.40	58.33	37.55	38.710	2.646	-18.914	0.38177	0.60352	0.51672	-0.47214	24.2	13111	100
2025-5-25 10:12:13.682	WT901BLE68(801231B9234C)	-2.691	0.467	0.309	-177.856	246.033	87.585	116.06	53.89	44.25	38.710	2.646	-18.914	0.38177	0.60352	0.51672	-0.47214	24.2	13111	100
2025-5-25 10:12:13.682	WT901BLE68(801231B9234C)	-1.793	-0.131	0.105	-100.342	95.154	85.388	115.78	51.34	47.26	38.710	2.646	-18.914	0.38177	0.60352	0.51672	-0.47214	24.2	13111	100
2025-5-25 10:12:13.703	WT901BLE68(801231B9234C)	-1.508	-0.375	0.017	-58.594	64.331	72.266	114.90	49.63	47.99	38.710	2.646	-18.914	0.38177	0.60352	0.51672	-0.47214	24.2	13111	100
2025-5-25 10:12:13.703	WT901BLE68(801231B9234C)	-1.206	-0.468	0.189	-41.687	41.138	53.894	114.47	48.44	48.52	38.710	2.646	-18.914	0.38177	0.60352	0.51672	-0.47214	24.2	13111	100
2025-5-25 10:12:13.747	WT901BLE68(801231B9234C)	-0.802	-0.488	0.249	-27.832	0.793	34.424	113.85	47.98	48.21	41.650	-5.292	-14.406	0.38177	0.60352	0.51672	-0.47214	24.2	13111	100
2025-5-25 10:12:13.747	WT901BLE68(801231B9234C)	-0.457	-0.478	0.228	-25.085	-12.939	28.015	113.03	47.96	47.27	41.650	-5.292	-14.406	0.38177	0.60352	0.51672	-0.47214	24.2	13111	100
2025-5-25 10:12:13.792	WT901BLE68(801231B9234C)	-0.228	-0.511	0.226	-22.400	5.432	20.569	112.60	48.04	46.57	41.650	-5.292	-14.406	0.38177	0.60352	0.51672	-0.47214	24.2	13111	100
2025-5-25 10:12:13.792	WT901BLE68(801231B9234C)	-0.063	-0.547	0.289	-20.203	34.790	8.789	112.95	48.09	46.69	41.650	-5.292	-14.406	0.38177	0.60352	0.51672	-0.47214	24.2	13111	100
2025-5-25 10:12:13.836	WT901BLE68(801231B9234C)	0.038	-0.594	0.347	-10.803	57.068	-13.672	114.27	48.26	47.71	41.650	-5.292	-14.406	0.38177	0.60352	0.51672	-0.47214	24.2	13111	100
2025-5-25 10:12:13.837	WT901BLE68(801231B9234C)	-0.003	-0.670	0.347	3.113	53.650	-37.720	116.39	48.75	49.30	41.650	-5.292	-14.406	0.38177	0.60352	0.51672	-0.47214	24.2	13111	100
2025-5-25 10:12:13.882	WT901BLE68(801231B9234C)	-0.071	-0.748	0.331	23.987	25.452	-66.101	118.99	49.86	50.87	41.650	-5.292	-14.406	0.38177	0.60352	0.51672	-0.47214	24.2	13111	100
2025-5-25 10:12:13.882	WT901BLE68(801231B9234C)	-0.129	-0.750	0.300	55.298	1.953	-79.712	122.15	51.53	52.38	41.650	-5.292	-14.406	0.38177	0.60352	0.51672	-0.47214	24.2	13111	100
2025-5-25 10:12:13.906	WT901BLE68(801231B9234C)	-0.287	-0.586	0.273	89.539	-30.396	-89.783	125.88	53.57	53.67	41.650	-5.292	-14.406	0.38177	0.60352	0.51672	-0.47214	24.2	13111	100
2025-5-25 10:12:13.906	WT901BLE68(801231B9234C)	-0.671	-0.483	0.221	111.572	-50.903	-95.520	130.05	56.01	54.82	41.650	-5.292	-14.406	0.38177	0.60352	0.51672	-0.47214	24.2	13111	100
2025-5-25 10:12:13.949	WT901BLE68(801231B9234C)	-1.749	-0.521	0.166	127.869	-53.772	-106.506	134.94	58.64	56.37	41.650	-5.292	-14.406	0.49359	0.62689	0.54507	-0.25720	24.2	13111	100
2025-5-25 10:12:13.949	WT901BLE68(801231B9234C)	-3.449	-0.635	0.157	124.817	-51.086	-129.456	140.92	61.30	59.02	41.650	-5.292	-14.406	0.49359	0.62689	0.54507	-0.25720	24.2	13111	100
2025-5-25 10:12:13.994	WT901BLE68(801231B9234C)	-4.108	-0.572	0.169	103.821	-191.895	-124.451	145.73	65.13	60.97	41.650	-5.292	-14.406	0.49359	0.62689	0.54507	-0.25720	24.2	13111	100
2025-5-25 10:12:13.994	WT901BLE68(801231B9234C)	-3.715	0.258	-0.244	85.144	-361.755	-139.648	145.21	72.02	57.45	41.650	-5.292	-14.406	0.49359	0.62689	0.54507	-0.25720	24.2	13111	100
2025-5-25 10:12:14.40	WT901BLE68(801231B9234C)	-2.103	0.788	-0.138	54.016	-386.047	-200.745	140.38	80.52	50.85	41.650	-5.292	-14.406	0.49359	0.62689	0.54507	-0.25720	24.2	13111	100
2025-5-25 10:12:14.40	WT901BLE68(801231B9234C)	-1.079	1.500	-0.075	101.196	-235.779	-182.373	123.55	87.84	32.09	41.650	-5.292	-14.406	0.49359	0.62689	0.54507	-0.25720	24.2	13111	100
2025-5-25 10:12:14.63	WT901BLE68(801231B9234C)	-1.398	1.051	0.016	99.365	78.918	-152.649	-130.14	89.30	136.68	41.650	-5.292	-14.406	0.49359	0.62689	0.54507	-0.25720	24.2	13111	100
2025-5-25 10:12:14.63	WT901BLE68(801231B9234C)	-1.301	0.649	0.013	123.169	229.431	-142.212	-140.21	84.57	124.63	41.650	-5.292	-14.406	0.49359	0.62689	0.54507	-0.25720	24.2	13111	100
2025-5-25 10:12:14.107	WT901BLE68(801231B9234C)	-0.923	0.727	-0.048	151.917	178.894	-94.482	-143.70	80.08	118.58	41.650	-5.292	-14.406	0.49359	0.62689	0.54507	-0.25720	24.2	13111	100
2025-5-25 10:12:14.107	WT901BLE68(801231B9234C)	-0.561	0.711	-0.086	147.095	115.356	-56.335	-144.24	77.28	115.38	41.650	-5.292	-14.406	0.49359	0.62689	0.54507	-0.25720	24.2	13111	100
2025-5-25 10:12:14.152	WT901BLE68(801231B9234C)	-0.174	0.616	-0.073	134.216	62.927	-30.640	-143.68	75.66	113.64	34.300	3.528	-23.520	0.49359	0.62689	0.54507	-0.25720	24.2	13111	100
2025-5-25 10:12:14.152	WT901BLE68(801231B9234C)	0.114	0.643	-0.060	116.272	8.423	-6.775	-142.91	75.26	112.46	34.300	3.528	-23.520	0.49359	0.62689	0.54507	-0.25720	24.2	13111	100
2025-5-25 10:12:14.197	WT901BLE68(801231B9234C)	0.424	0.698	-0.102	89.661	-34.302	-10.071	-140.95	75.66	113.09	34.300	3.528	-23.520	0.49359	0.62689	0.54507	-0.25720	24.2	13111	100
2025-5-25 10:12:14.197	WT901BLE68(801231B9234C)	0.536	0.706	-0.125	52.368	-54.871	-5.920	-138.51	76.49	114.88	34.300	3.528	-23.520	0.49359	0.62689	0.54507	-0.25720	24.2	13111	100
2025-5-25 10:12:14.241	WT901BLE68(801231B9234C)	0.412	0.606	-0.068	-0.244	-39.490	0.427	-137.82	77.35	115.91	34.300	3.528	-23.520	0.49359	0.62689	0.54507	-0.25720	24.2	13111	100
2025-5-25 10:12:14.242	WT901BLE68(801231B9234C)	0.284	0.625	-0.130	-61.035	-8.301	36.987	-142.17	78.06	112.95	34.300	3.528	-23.520	0.49359	0.62689	0.54507	-0.25720	24.2	13111	100
2025-5-25 10:12:14.265	WT901BLE68(801231B9234C)	0.170	0.621	-0.193	-110.168	5.005	69.580	-152.46	78.70	105.02	34.300	3.528	-23.520	0.49359	0.62689	0.54507	-0.25720	24.2	13111	100
2025-5-25 10:12:14.266	WT901BLE68(801231B9234C)	-0.159	0.774	-0.146	-159.729	3.052	109.375	-168.08	79.10	92.57	34.300	3.528	-23.520	0.49359	0.62689	0.54507	-0.25720	24.2	13111	100
2025-5-25 10:12:14.310	WT901BLE68(801231B9234C)	-1.081	0.757	-0.157	-212.769	5.615	154.358	170.80	78.68	75.53	34.300	3.528	-23.520	0.49359	0.62689	0.54507	-0.25720	24.2	13111	100
2025-5-25 10:12:14.310	WT901BLE68(801231B9234C)	-2.907	1.075	-0.484	-263.672	16.479	175.598	149.75	76.73	59.40	34.300	3.528	-23.520	0.49359	0.62689	0.54507	-0.25720	24.2	13111	100
2025-5-25 10:12:14.354	WT901BLE68(801231B9234C)	-2.687	1.165	-0.463	-267.639	40.161	278.503	132.59	72.82	47.57	34.300	3.528	-23.520	0.54498	0.58997	0.50027	-0.32333	24.2	13111	100
2025-5-25 10:12:14.355	WT901BLE68(801231B9234C)	-2.665	0.588	0.098	-181.152	25.452	327.026	118.44	66.99	37.53	34.300	3.528	-23.520	0.54498	0.58997	0.50027	-0.32333	24.2	13111	100
2025-5-25 10:12:14.399	WT901BLE68(801231B9234C)	-2.939	1.031	0.456	-147.766	199.219	172.791	115.68	61.46	38.15	34.300	3.528	-23.520	0.54498	0.58997	0.50027	-0.32333	24.2	13111	100
2025-5-25 10:12:14.399	WT901BLE68(801231B9234C)	-2.204	0.375	0.446	-119.202	204.407	87.646	117.64	57.62	43.84	34.300	3.528	-23.520	0.54498	0.58997	0.50027	-0.32333	24.2	13111	100
2025-5-25 10:12:14.444	WT901BLE68(801231B9234C)	-1.730	-0.097	0.307	-81.055	129.944	80.994	118.27	54.84	47.10	34.300	3.528	-23.520	0.54498	0.58997	0.50027	-0.32333	24.2	13111	100
2025-5-25 10:12:14.445	WT901BLE68(801231B9234C)	-1.530	-0.307	0.133	-56.885	91.858	67.078	118.25	52.81	48.86	34.300	3.528	-23.520	0.54498	0.58997	0.50027	-0.32333	24.2	13111	100
2025-5-25 10:12:14.468	WT901BLE68(801231B9234C)	-1.321	-0.369	0.114	-43.335	31.677	50.537	117.72	51.60	49.43	34.300	3.528	-23.520	0.54498	0.58997	0.50027	-0.32333	24.2	13111	100
2025-5-25 10:12:14.468	WT901BLE68(801231B9234C)	-0.944	-0.353	0.170	-38.208	-33.813	32.471	116.23	51.39	48.36	34.300	3.528	-23.520	0.54498	0.58997	0.50027	-0.32333	24.2	13111	100
2025-5-25 10:12:14.513	WT901BLE68(801231B9234C)	-0.522	-0.383	0.195	-35.461	-81.970	20.752	113.76	51.99	45.83	34.300	3.528	-23.520	0.54498	0.58997	0.50027	-0.32333	24.2	13111	100
2025-5-25 10:12:14.513	WT901BLE68(801231B9234C)	-0.168	-0.455	0.196	-33.203	-94.788	15.259	110.90	52.83	42.54	34.300	3.528	-23.520	0.54498	0.58997	0.50027	-0.32333	24.2	13111	100
2025-5-25 10:12:14.579	WT901BLE68(801231B9234C)	0.079	-0.543	0.188	-25.208	-74.524	12.024	108.37	53.63	39.38	39.886	-4.606	-15.876	0.54498	0.58997	0.50027	-0.32333	24.2	13111	100
2025-5-25 10:12:14.579	WT901BLE68(801231B9234C)	0.175	-0.778	0.240	-14.282	-31.921	-6.592	107.13	54.39	37.42	39.886	-4.606	-15.876	0.54498	0.58997	0.50027	-0.32333	24.2	13111	100
2025-5-25 10:12:14.602	WT901BLE68(801231B9234C)	0.101	-0.926	0.289	7.507	4.761	-36.377	107.80	55.43	37.19	39.886	-4.606	-15.876	0.54498	0.58997	0.50027	-0.32333	24.2	13111	100
2025-5-25 10:12:14.602	WT901BLE68(801231B9234C)	-0.157	-0.857	0.256	30.396	21.057	-65.063	110.13	56.92	38.29	39.886	-4.606	-15.876	0.54498	0.58997	0.50027	-0.32333	24.2	13111	100
2025-5-25 10:12:14.647	WT901BLE68(801231B9234C)	-0.175	-0.309	0.196	53.833	22.339	-78.979	113.76	58.74	40.35	39.886	-4.606	-15.876	0.54498	0.58997	0.50027	-0.32333	24.2	13111	100
2025-5-25 10:12:14.647	WT901BLE68(801231B9234C)	-0.354	-0.527	0.167	71.045	5.920	-93.262	118.07	60.80	42.75	39.886	-4.606	-15.876	0.54498	0.58997	0.50027	-0.32333	24.2	13111	100
2025-5-25 10:12:14.670	WT901BLE68(801231B9234C)	-0.821	-0.477	0.141	85.999	-15.808	-106.323	122.82	63.15	45.18	39.886	-4.606	-15.876	0.54498	0.58997	0.50027	-0.32333	24.2	13111	100
2025-5-25 10:12:14.670	WT901BLE68(801231B9234C)	-2.038	-0.498	0.098	98.328	-24.353	-115.540	128.27	65.70	48.07	39.886	-4.606	-15.876	0.54498	0.58997	0.50027	-0.32333	24.2	13111	100
2025-5-25 10:12:14.715	WT901BLE68(801231B9234C)	-3.074	-0.655	0.250	94.727	-17.639	-142.761	135.10	68.36	52.40	39.886	-4.606	-15.876	0.54498	0.58997	0.50027	-0.32333	24.2	13111	100
2025-5-25 10:12:14.715	WT901BLE68(801231B9234C)	-3.757	-0.329	0.260	96.313	-143.250	-126.404	140.89	71.76	55.72	39.886	-4.606	-15.876	0.54498	0.58997	0.50027	-0.32333	24.2	13111	100
2025-5-25 10:12:14.760	WT901BLE68(801231B9234C)	-3.573	0.445	-0.040	73.242	-208.313	-145.386	142.29	76.82	54.81	39.886	-4.606	-15.876	0.49393	0.54883	0.51337	-0.43719	24.2	13111	100
2025-5-25 10:12:14.760	WT901BLE68(801231B9234C)	-2.089	0.932	0.144	30.762	-263.672	-198.364	144.23	83.06	55.81	39.886	-4.606	-15.876	0.49393	0.54883	0.51337	-0.43719	24.2	13111	100
2025-5-25 10:12:14.805	WT901BLE68(801231B9234C)	-1.205	1.239	0.059	62.683	-217.834	-163.208	146.06	89.43	56.65	39.886	-4.606	-15.876	0.49393	0.54883	0.51337	-0.43719	24.2	13111	100
2025-5-25 10:12:14.805	WT901BLE68(801231B9234C)	-1.041	0.740	0.045	64.697	-1.892	-142.456	-71.54	88.12	-161.98	39.886	-4.606	-15.876	0.49393	0.54883	0.51337	-0.43719	24.2	13111	100
2025-5-25 10:12:14.828	WT901BLE68(801231B9234C)	-0.937	0.602	0.038	112.000	145.386	-99.304	-103.90	85.96	163.99	39.886	-4.606	-15.876	0.49393	0.54883	0.51337	-0.43719	24.2	13111	100
2025-5-25 10:12:14.828	WT901BLE68(801231B9234C)	-0.757	0.738	0.065	147.888	172.424	-59.631	-125.97	83.35	139.38	39.886	-4.606	-15.876	0.49393	0.54883	0.51337	-0.43719	24.2	13111	100
2025-5-25 10:12:14.872	WT901BLE68(801231B9234C)	-0.551	0.651	0.096	159.241	121.765	-32.654	-135.31	81.08	127.19	39.886	-4.606	-15.876	0.49393	0.54883	0.51337	-0.43719	24.2	13111	100
2025-5-25 10:12:14.872	WT901BLE68(801231B9234C)	-0.247	0.568	0.095	154.175	45.654	-14.099	-137.47	79.97	122.30	39.886	-4.606	-15.876	0.49393	0.54883	0.51337	-0.43719	24.2	13111	100
2025-5-25 10:12:14.920	WT901BLE68(801231B9234C)	0.115	0.558	0.048	144.531	-17.090	2.502	-136.11	80.12	121.23	39.886	-4.606	-15.876	0.49393	0.54883	0.51337	-0.43719	24.2	13111	100
2025-5-25 10:12:14.920	WT901BLE68(801231B9234C)	0.510	0.606	-0.046	139.709	-50.232	6.104	-132.32	80.99	122.78	39.886	-4.606	-15.876	0.49393	0.54883	0.51337	-0.43719	24.2	13111	100
2025-5-25 10:12:14.964	WT901BLE68(801231B9234C)	0.626	0.589	-0.073	109.253	-63.965	4.517	-126.84	82.12	126.49	32.536	0.000	-25.480	0.49393	0.54883	0.51337	-0.43719	24.2	13111	100
2025-5-25 10:12:14.964	WT901BLE68(801231B9234C)	0.420	0.519	-0.020	58.533	-34.119	11.414	-123.74	83.11	128.72	32.536	0.000	-25.480	0.49393	0.54883	0.51337	-0.43719	24.2	13111	100
2025-5-25 10:12:15.7	WT901BLE68(801231B9234C)	0.264	0.328	-0.067	-5.737	17.944	50.720	-132.30	84.03	120.45	32.536	0.000	-25.480	0.49393	0.54883	0.51337	-0.43719	24.2	13111	100
2025-5-25 10:12:15.7	WT901BLE68(801231B9234C)	0.009	0.308	-0.125	-42.480	38.940	79.834	-153.87	84.44	100.00	32.536	0.000	-25.480	0.49393	0.54883	0.51337	-0.43719	24.2	13111	100
2025-5-25 10:12:15.31	WT901BLE68(801231B9234C)	-0.673	0.610	-0.033	-104.248	17.883	106.201	178.75	84.07	74.65	32.536	0.000	-25.480	0.49393	0.54883	0.51337	-0.43719	24.2	13111	100
2025-5-25 10:12:15.32	WT901BLE68(801231B9234C)	-1.932	0.771	0.120	-190.002	-9.338	107.727	152.79	83.01	52.28	32.536	0.000	-25.480	0.49393	0.54883	0.51337	-0.43719	24.2	13111	100
2025-5-25 10:12:15.98	WT901BLE68(801231B9234C)	-2.505	0.973	0.307	-261.597	-41.382	102.539	132.21	81.69	36.85	32.536	0.000	-25.480	0.49393	0.54883	0.51337	-0.43719	24.2	13111	100
2025-5-25 10:12:15.98	WT901BLE68(801231B9234C)	-2.435	1.103	0.503	-254.333	-94.849	203.491	109.25	79.12	19.47	32.536	0.000	-25.480	0.49393	0.54883	0.51337	-0.43719	24.2	13111	100
2025-5-25 10:12:15.123	WT901BLE68(801231B9234C)	-2.295	0.934	0.645	-206.299	-102.966	186.279	91.72	75.38	6.51	32.536	0.000	-25.480	0.49393	0.54883	0.51337	-0.43719	24.2	13111	100
2025-5-25 10:12:15.123	WT901BLE68(801231B9234C)	-1.985	0.737	0.797	-185.669	38.086	131.226	86.51	72.19	5.50	32.536	0.000	-25.480	0.49393	0.54883	0.51337	-0.43719	24.2	13111	100
2025-5-25 10:12:15.164	WT901BLE68(801231B9234C)	-2.096	0.180	0.845	-119.995	100.342	110.718	88.39	69.80	10.79	32.536	0.000	-25.480	0.49393	0.54883	0.51337	-0.43719	24.2	13111	100
2025-5-25 10:12:15.165	WT901BLE68(801231B9234C)	-1.759	-0.225	0.896	-74.707	91.919	86.243	91.05	67.88	15.81	32.536	0.000	-25.480	0.62946	0.53775	0.46487	-0.31366	24.2	13111	100
2025-5-25 10:12:15.212	WT901BLE68(801231B9234C)	-1.167	-0.364	0.744	-26.367	26.978	88.013	91.93	66.14	17.87	32.536	0.000	-25.480	0.62946	0.53775	0.46487	-0.31366	24.2	13111	100
2025-5-25 10:12:15.212	WT901BLE68(801231B9234C)	-0.751	-0.324	0.543	-0.732	-5.615	75.134	91.17	64.73	17.29	32.536	0.000	-25.480	0.62946	0.53775	0.46487	-0.31366	24.2	13111	100
2025-5-25 10:12:15.255	WT901BLE68(801231B9234C)	-0.518	-0.411	0.396	0.061	10.925	59.509	90.70	63.67	16.75	32.536	0.000	-25.480	0.62946	0.53775	0.46487	-0.31366	24.2	13111	100
2025-5-25 10:12:15.255	WT901BLE68(801231B9234C)	-0.392	-0.495	0.332	-4.272	44.067	43.823	91.39	62.97	17.47	32.536	0.000	-25.480	0.62946	0.53775	0.46487	-0.31366	24.2	13111	100
2025-5-25 10:12:15.279	WT901BLE68(801231B9234C)	-0.289	-0.575	0.293	-4.395	57.007	29.785	92.91	62.64	19.03	32.536	0.000	-25.480	0.62946	0.53775	0.46487	-0.31366	24.2	13111	100
2025-5-25 10:12:15.280	WT901BLE68(801231B9234C)	-0.227	-0.582	0.274	-3.967	54.626	15.137	94.84	62.64	20.80	32.536	0.000	-25.480	0.62946	0.53775	0.46487	-0.31366	24.2	13111	100
2025-5-25 10:12:15.325	WT901BLE68(801231B9234C)	-0.057	-0.636	0.274	-0.549	14.893	-4.028	95.99	63.10	21.43	32.536	0.000	-25.480	0.62946	0.53775	0.46487	-0.31366	24.2	13111	100
2025-5-25 10:12:15.325	WT901BLE68(801231B9234C)	0.092	-0.733	0.223	8.972	-19.470	-24.780	96.08	64.06	20.58	32.536	0.000	-25.480	0.62946	0.53775	0.46487	-0.31366	24.2	13111	100
2025-5-25 10:12:15.368	WT901BLE68(801231B9234C)	0.077	-0.748	0.172	17.761	-32.166	-54.749	95.91	65.65	19.13	32.536	0.000	-25.480	0.62946	0.53775	0.46487	-0.31366	24.2	13111	100
2025-5-25 10:12:15.368	WT901BLE68(801231B9234C)	-0.204	-0.663	0.121	30.579	-8.972	-87.097	96.73	67.91	18.54	33.908	-1.960	-25.088	0.62946	0.53775	0.46487	-0.31366	24.2	13111	100
2025-5-25 10:12:15.412	WT901BLE68(801231B9234C)	-0.632	-0.595	0.146	40.100	6.104	-124.634	99.44	70.83	19.74	33.908	-1.960	-25.088	0.62946	0.53775	0.46487	-0.31366	24.2	13111	100
2025-5-25 10:12:15.412	WT901BLE68(801231B9234C)	-1.051	-0.560	0.285	53.284	9.460	-173.279	104.36	74.54	23.02	33.908	-1.960	-25.088	0.62946	0.53775	0.46487	-0.31366	24.2	13111	100
2025-5-25 10:12:15.437	WT901BLE68(801231B9234C)	-1.701	-0.643	0.354	58.044	-16.235	-190.613	111.59	78.79	28.48	33.908	-1.960	-25.088	0.62946	0.53775	0.46487	-0.31366	24.2	13111	100
2025-5-25 10:12:15.437	WT901BLE68(801231B9234C)	-2.995	-1.016	0.462	52.429	-38.330	-163.696	120.64	82.78	35.77	33.908	-1.960	-25.088	0.62946	0.53775	0.46487	-0.31366	24.2	13111	100
2025-5-25 10:12:15.480	WT901BLE68(801231B9234C)	-3.684	-0.734	0.398	49.011	-38.391	-163.940	139.95	86.03	53.56	33.908	-1.960	-25.088	0.62946	0.53775	0.46487	-0.31366	24.2	13111	100
2025-5-25 10:12:15.480	WT901BLE68(801231B9234C)	-2.938	0.054	0.200	59.692	-124.451	-195.251	-144.72	88.59	127.39	33.908	-1.960	-25.088	0.62946	0.53775	0.46487	-0.31366	24.2	13111	100
2025-5-25 10:12:15.527	WT901BLE68(801231B9234C)	-2.277	0.855	0.202	83.557	-137.756	-217.773	-75.55	84.89	-164.98	33.908	-1.960	-25.088	0.62946	0.53775	0.46487	-0.31366	24.2	13111	100
2025-5-25 10:12:15.527	WT901BLE68(801231B9234C)	-1.831	0.964	0.309	103.088	-34.485	-229.309	-72.19	79.99	-163.56	33.908	-1.960	-25.088	0.62946	0.53775	0.46487	-0.31366	24.2	13111	100
2025-5-25 10:12:15.570	WT901BLE68(801231B9234C)	-1.338	0.813	0.371	95.398	52.612	-177.246	-76.93	76.50	-170.24	33.908	-1.960	-25.088	0.62946	0.53775	0.46487	-0.31366	24.2	13111	100
2025-5-25 10:12:15.570	WT901BLE68(801231B9234C)	-0.952	0.499	0.358	121.094	62.378	-134.155	-81.12	74.04	-176.53	33.908	-1.960	-25.088	0.40515	0.44034	0.53177	-0.59918	24.2	13111	100
2025-5-25 10:12:15.594	WT901BLE68(801231B9234C)	-0.602	0.619	0.264	138.733	58.960	-99.976	-83.03	72.26	179.07	33.908	-1.960	-25.088	0.40515	0.44034	0.53177	-0.59918	24.2	13111	100
2025-5-25 10:12:15.594	WT901BLE68(801231B9234C)	-0.355	0.640	0.206	136.169	66.711	-54.016	-84.44	71.35	175.11	33.908	-1.960	-25.088	0.40515	0.44034	0.53177	-0.59918	24.2	13111	100
2025-5-25 10:12:15.638	WT901BLE68(801231B9234C)	-0.189	0.543	0.170	128.601	68.604	-20.569	-85.87	71.22	171.33	33.908	-1.960	-25.088	0.40515	0.44034	0.53177	-0.59918	24.2	13111	100
2025-5-25 10:12:15.638	WT901BLE68(801231B9234C)	-0.006	0.556	0.135	117.188	62.805	-1.404	-87.37	71.58	167.76	33.908	-1.960	-25.088	0.40515	0.44034	0.53177	-0.59918	24.2	13111	100
2025-5-25 10:12:15.683	WT901BLE68(801231B9234C)	0.178	0.632	0.076	101.440	51.575	10.254	-88.79	72.25	164.64	33.908	-1.960	-25.088	0.40515	0.44034	0.53177	-0.59918	24.2	13111	100
2025-5-25 10:12:15.683	WT901BLE68(801231B9234C)	0.286	0.692	0.029	72.632	38.086	18.921	-90.21	73.13	162.06	33.908	-1.960	-25.088	0.40515	0.44034	0.53177	-0.59918	24.2	13111	100
2025-5-25 10:12:15.729	WT901BLE68(801231B9234C)	0.232	0.564	0.066	21.057	21.484	33.569	-91.91	74.30	160.14	33.908	-1.960	-25.088	0.40515	0.44034	0.53177	-0.59918	24.2	13111	100
2025-5-25 10:12:15.729	WT901BLE68(801231B9234C)	0.109	0.444	0.027	-39.429	14.771	75.989	-94.92	76.10	158.15	33.908	-1.960	-25.088	0.40515	0.44034	0.53177	-0.59918	24.2	13111	100
2025-5-25 10:12:15.772	WT901BLE68(801231B9234C)	-0.148	0.393	-0.089	-87.830	-3.967	99.060	-99.27	78.59	155.90	33.908	-1.960	-25.088	0.40515	0.44034	0.53177	-0.59918	24.2	13111	100
2025-5-25 10:12:15.773	WT901BLE68(801231B9234C)	-0.559	0.608	-0.145	-140.137	-38.757	125.366	-104.05	81.60	154.16	31.752	2.744	-27.244	0.40515	0.44034	0.53177	-0.59918	24.2	13111	100
2025-5-25 10:12:15.797	WT901BLE68(801231B9234C)	-1.317	0.655	0.096	-213.196	-55.969	143.188	-109.58	85.14	152.95	31.752	2.744	-27.244	0.40515	0.44034	0.53177	-0.59918	24.2	13111	100
2025-5-25 10:12:15.797	WT901BLE68(801231B9234C)	-2.013	0.650	0.274	-272.278	17.761	157.593	-146.24	88.20	121.85	31.752	2.744	-27.244	0.40515	0.44034	0.53177	-0.59918	24.2	13111	100
2025-5-25 10:12:15.840	WT901BLE68(801231B9234C)	-2.407	0.577	0.153	-293.457	71.899	212.769	133.08	86.00	47.43	31.752	2.744	-27.244	0.40515	0.44034	0.53177	-0.59918	24.2	13111	100
2025-5-25 10:12:15.840	WT901BLE68(801231B9234C)	-2.956	0.543	-0.034	-282.349	115.112	220.886	116.93	80.98	37.33	31.752	2.744	-27.244	0.40515	0.44034	0.53177	-0.59918	24.2	13111	100
2025-5-25 10:12:15.885	WT901BLE68(801231B9234C)	-2.675	0.416	0.129	-263.428	160.950	167.847	115.39	76.16	41.65	31.752	2.744	-27.244	0.40515	0.44034	0.53177	-0.59918	24.2	13111	100
2025-5-25 10:12:15.885	WT901BLE68(801231B9234C)	-2.242	0.035	0.334	-207.886	120.056	137.817	114.71	72.28	45.92	31.752	2.744	-27.244	0.40515	0.44034	0.53177	-0.59918	24.2	13111	100
2025-5-25 10:12:15.932	WT901BLE68(801231B9234C)	-1.752	-0.225	0.292	-156.616	53.223	130.920	111.74	69.35	46.61	31.752	2.744	-27.244	0.40515	0.44034	0.53177	-0.59918	24.2	13111	100
2025-5-25 10:12:15.932	WT901BLE68(801231B9234C)	-1.397	-0.361	0.243	-112.061	15.808	125.183	108.01	66.94	45.41	31.752	2.744	-27.244	0.40515	0.44034	0.53177	-0.59918	24.2	13111	100
2025-5-25 10:12:15.975	WT901BLE68(801231B9234C)	-1.133	-0.382	0.234	-74.158	-2.075	107.666	104.87	65.00	43.85	31.752	2.744	-27.244	0.40515	0.44034	0.53177	-0.59918	24.2	13111	100
2025-5-25 10:12:15.976	WT901BLE68(801231B9234C)	-0.884	-0.404	0.199	-56.152	-20.630	98.145	101.98	63.42	41.91	31.752	2.744	-27.244	0.64658	0.50507	0.54044	-0.18613	24.2	13111	100
2025-5-25 10:12:15.999	WT901BLE68(801231B9234C)	-0.633	-0.456	0.137	-46.021	-31.372	96.680	99.18	61.98	39.67	31.752	2.744	-27.244	0.64658	0.50507	0.54044	-0.18613	24.2	13111	100
2025-5-25 10:12:16.0	WT901BLE68(801231B9234C)	-0.413	-0.513	0.115	-34.119	-33.020	91.187	96.83	60.65	37.48	31.752	2.744	-27.244	0.64658	0.50507	0.54044	-0.18613	24.2	13111	100
2025-5-25 10:12:16.43	WT901BLE68(801231B9234C)	-0.234	-0.583	0.121	-21.545	-27.283	78.674	95.20	59.50	35.62	31.752	2.744	-27.244	0.64658	0.50507	0.54044	-0.18613	24.2	13111	100
2025-5-25 10:12:16.43	WT901BLE68(801231B9234C)	-0.103	-0.680	0.199	-10.010	-26.611	48.767	94.31	58.83	34.11	31.752	2.744	-27.244	0.64658	0.50507	0.54044	-0.18613	24.2	13111	100
2025-5-25 10:12:16.87	WT901BLE68(801231B9234C)	-0.098	-0.756	0.241	1.709	-43.701	4.089	93.68	58.98	32.41	31.752	2.744	-27.244	0.64658	0.50507	0.54044	-0.18613	24.2	13111	100
2025-5-25 10:12:16.87	WT901BLE68(801231B9234C)	-0.203	-0.800	0.223	15.869	-56.274	-58.777	92.90	60.31	30.19	31.752	2.744	-27.244	0.64658	0.50507	0.54044	-0.18613	24.2	13111	100
2025-5-25 10:12:16.134	WT901BLE68(801231B9234C)	-0.335	-0.689	0.213	34.485	-31.189	-104.980	93.09	62.76	28.64	31.752	2.744	-27.244	0.64658	0.50507	0.54044	-0.18613	24.2	13111	100
2025-5-25 10:12:16.134	WT901BLE68(801231B9234C)	-0.542	-0.622	0.209	54.626	-7.141	-152.161	94.97	66.08	28.60	31.752	2.744	-27.244	0.64658	0.50507	0.54044	-0.18613	24.2	13111	100
2025-5-25 10:12:16.177	WT901BLE68(801231B9234C)	-0.893	-0.653	0.142	72.083	-9.888	-186.401	98.25	70.19	29.71	31.752	2.744	-27.244	0.64658	0.50507	0.54044	-0.18613	24.2	13111	100
2025-5-25 10:12:16.177	WT901BLE68(801231B9234C)	-1.492	-0.816	0.227	76.416	-28.809	-206.909	102.26	74.78	31.37	37.338	1.862	-19.698	0.64658	0.50507	0.54044	-0.18613	24.2	13111	100
2025-5-25 10:12:16.202	WT901BLE68(801231B9234C)	-2.684	-1.029	0.322	72.388	-49.194	-182.617	106.46	79.28	33.24	37.338	1.862	-19.698	0.64658	0.50507	0.54044	-0.18613	24.2	13111	100
2025-5-25 10:12:16.202	WT901BLE68(801231B9234C)	-3.714	-0.794	0.407	59.143	-53.650	-176.514	111.08	83.36	35.78	37.338	1.862	-19.698	0.64658	0.50507	0.54044	-0.18613	24.2	13111	100
2025-5-25 10:12:16.245	WT901BLE68(801231B9234C)	-3.189	-0.245	0.244	63.110	-170.105	-202.576	100.79	88.12	23.65	37.338	1.862	-19.698	0.64658	0.50507	0.54044	-0.18613	24.2	13111	100
2025-5-25 10:12:16.245	WT901BLE68(801231B9234C)	-2.369	0.352	0.404	57.312	-247.864	-207.642	-24.31	86.01	-103.00	37.338	1.862	-19.698	0.64658	0.50507	0.54044	-0.18613	24.2	13111	100
2025-5-25 10:12:16.290	WT901BLE68(801231B9234C)	-1.629	0.595	0.610	57.922	-168.640	-220.642	-36.67	80.09	-116.61	37.338	1.862	-19.698	0.64658	0.50507	0.54044	-0.18613	24.2	13111	100
2025-5-25 10:12:16.290	WT901BLE68(801231B9234C)	-1.177	0.728	0.486	64.880	-15.503	-182.983	-45.08	76.44	-126.38	37.338	1.862	-19.698	0.64658	0.50507	0.54044	-0.18613	24.2	13111	100
2025-5-25 10:12:16.337	WT901BLE68(801231B9234C)	-0.857	0.644	0.337	83.862	86.365	-133.240	-53.77	74.94	-136.68	37.338	1.862	-19.698	0.64658	0.50507	0.54044	-0.18613	24.2	13111	100
2025-5-25 10:12:16.337	WT901BLE68(801231B9234C)	-0.577	0.610	0.304	108.643	136.230	-89.417	-62.66	74.62	-147.66	37.338	1.862	-19.698	0.64658	0.50507	0.54044	-0.18613	24.2	13111	100
2025-5-25 10:12:16.380	WT901BLE68(801231B9234C)	-0.386	0.594	0.279	121.155	145.386	-56.580	-71.17	74.77	-158.55	37.338	1.862	-19.698	0.64658	0.50507	0.54044	-0.18613	24.2	13111	100
2025-5-25 10:12:16.380	WT901BLE68(801231B9234C)	-0.174	0.590	0.224	122.314	125.916	-35.278	-78.49	75.01	-168.23	37.338	1.862	-19.698	0.43716	0.42078	0.54633	-0.57724	24.2	13111	100
2025-5-25 10:12:16.405	WT901BLE68(801231B9234C)	0.019	0.680	0.151	117.493	77.576	-17.151	-83.17	75.24	-175.06	37.338	1.862	-19.698	0.43716	0.42078	0.54633	-0.57724	24.2	13111	100
2025-5-25 10:12:16.405	WT901BLE68(801231B9234C)	0.312	0.810	0.061	98.022	11.780	-8.545	-83.84	75.56	-177.37	37.338	1.862	-19.698	0.43716	0.42078	0.54633	-0.57724	24.2	13111	100
2025-5-25 10:12:16.448	WT901BLE68(801231B9234C)	0.458	0.750	0.014	72.937	-27.954	-0.122	-81.14	76.00	-175.70	37.338	1.862	-19.698	0.43716	0.42078	0.54633	-0.57724	24.2	13111	100
2025-5-25 10:12:16.448	WT901BLE68(801231B9234C)	0.420	0.605	-0.019	32.959	-31.799	23.621	-77.64	76.76	-172.44	37.338	1.862	-19.698	0.43716	0.42078	0.54633	-0.57724	24.2	13111	100
2025-5-25 10:12:16.492	WT901BLE68(801231B9234C)	0.312	0.584	-0.138	-14.587	-17.822	74.768	-74.78	78.42	-168.95	37.338	1.862	-19.698	0.43716	0.42078	0.54633	-0.57724	24.2	13111	100
2025-5-25 10:12:16.492	WT901BLE68(801231B9234C)	0.113	0.557	-0.225	-61.401	-4.639	131.042	-71.70	81.33	-164.34	37.338	1.862	-19.698	0.43716	0.42078	0.54633	-0.57724	24.2	13111	100
2025-5-25 10:12:16.540	WT901BLE68(801231B9234C)	-0.282	0.653	-0.115	-98.633	-15.808	178.101	-61.88	85.12	-152.29	37.338	1.862	-19.698	0.43716	0.42078	0.54633	-0.57724	24.2	13111	100
2025-5-25 10:12:16.540	WT901BLE68(801231B9234C)	-1.352	1.019	0.115	-152.710	-38.086	220.337	1.48	87.80	-85.69	37.338	1.862	-19.698	0.43716	0.42078	0.54633	-0.57724	24.2	13111	100
2025-5-25 10:12:16.561	WT901BLE68(801231B9234C)	-2.468	0.694	0.275	-210.999	-38.940	233.459	54.77	84.34	-27.91	37.338	1.862	-19.698	0.43716	0.42078	0.54633	-0.57724	24.2	13111	100
2025-5-25 10:12:16.561	WT901BLE68(801231B9234C)	-2.658	0.603	0.222	-191.711	-7.996	331.787	68.14	78.60	-9.92	26.656	8.624	-28.224	0.43716	0.42078	0.54633	-0.57724	24.2	13111	100
2025-5-25 10:12:16.607	WT901BLE68(801231B9234C)	-3.277	0.821	0.645	-130.188	32.288	351.013	74.00	71.59	-0.29	26.656	8.624	-28.224	0.43716	0.42078	0.54633	-0.57724	24.2	13111	100
2025-5-25 10:12:16.607	WT901BLE68(801231B9234C)	-2.958	0.939	0.841	-133.606	208.374	221.191	81.24	66.75	10.66	26.656	8.624	-28.224	0.43716	0.42078	0.54633	-0.57724	24.2	13111	100
2025-5-25 10:12:16.650	WT901BLE68(801231B9234C)	-2.396	0.209	0.719	-90.332	231.323	140.320	89.22	63.79	22.16	26.656	8.624	-28.224	0.43716	0.42078	0.54633	-0.57724	24.2	13111	100
2025-5-25 10:12:16.650	WT901BLE68(801231B9234C)	-1.832	-0.074	0.522	-73.608	177.917	94.727	94.69	61.54	30.29	26.656	8.624	-28.224	0.43716	0.42078	0.54633	-0.57724	24.2	13111	100
2025-5-25 10:12:16.695	WT901BLE68(801231B9234C)	-1.339	-0.251	0.354	-56.824	107.788	78.857	97.33	59.78	34.94	26.656	8.624	-28.224	0.43716	0.42078	0.54633	-0.57724	24.2	13111	100
2025-5-25 10:12:16.695	WT901BLE68(801231B9234C)	-0.965	-0.334	0.263	-51.941	48.462	68.115	97.84	58.44	36.86	26.656	8.624	-28.224	0.43716	0.42078	0.54633	-0.57724	24.2	13111	100
2025-5-25 10:12:16.742	WT901BLE68(801231B9234C)	-0.661	-0.372	0.191	-55.481	19.958	59.753	97.13	57.45	37.30	26.656	8.624	-28.224	0.43716	0.42078	0.54633	-0.57724	24.2	13111	100
2025-5-25 10:12:16.742	WT901BLE68(801231B9234C)	-0.454	-0.408	0.119	-63.049	18.066	60.669	96.03	56.62	37.30	26.656	8.624	-28.224	0.43716	0.42078	0.54633	-0.57724	24.2	13111	100
2025-5-25 10:12:16.765	WT901BLE68(801231B9234C)	-0.345	-0.548	0.098	-64.209	33.325	54.138	95.31	55.87	37.71	26.656	8.624	-28.224	0.43716	0.42078	0.54633	-0.57724	24.2	13111	100
2025-5-25 10:12:16.765	WT901BLE68(801231B9234C)	-0.245	-0.703	0.141	-55.786	36.926	36.804	95.14	55.42	38.38	26.656	8.624	-28.224	0.67496	0.51932	0.50882	-0.12552	24.2	13111	100
2025-5-25 10:12:16.807	WT901BLE68(801231B9234C)	-0.167	-0.840	0.243	-42.358	18.677	8.911	95.30	55.49	38.83	26.656	8.624	-28.224	0.67496	0.51932	0.50882	-0.12552	24.2	13111	100
2025-5-25 10:12:16.808	WT901BLE68(801231B9234C)	-0.172	-0.875	0.313	-28.870	-27.039	-28.320	95.09	56.35	38.20	26.656	8.624	-28.224	0.67496	0.51932	0.50882	-0.12552	24.2	13111	100
2025-5-25 10:12:16.852	WT901BLE68(801231B9234C)	-0.251	-0.857	0.317	-5.188	-54.688	-63.843	94.36	58.04	36.43	26.656	8.624	-28.224	0.67496	0.51932	0.50882	-0.12552	24.2	13111	100
2025-5-25 10:12:16.852	WT901BLE68(801231B9234C)	-0.321	-0.701	0.299	20.264	-56.702	-83.801	93.99	60.25	34.45	26.656	8.624	-28.224	0.67496	0.51932	0.50882	-0.12552	24.2	13111	100
2025-5-25 10:12:16.898	WT901BLE68(801231B9234C)	-0.462	-0.645	0.302	45.532	-57.068	-106.262	94.05	62.90	32.47	26.656	8.624	-28.224	0.67496	0.51932	0.50882	-0.12552	24.2	13111	100
2025-5-25 10:12:16.898	WT901BLE68(801231B9234C)	-0.971	-0.637	0.258	73.425	-52.063	-127.808	94.74	66.02	30.64	26.656	8.624	-28.224	0.67496	0.51932	0.50882	-0.12552	24.2	13111	100
2025-5-25 10:12:16.945	WT901BLE68(801231B9234C)	-2.274	-0.678	0.326	83.435	-38.269	-137.207	96.36	69.36	29.43	26.656	8.624	-28.224	0.67496	0.51932	0.50882	-0.12552	24.2	13111	100
2025-5-25 10:12:16.945	WT901BLE68(801231B9234C)	-3.115	-0.617	0.474	80.994	-49.927	-151.245	98.13	73.00	28.52	26.656	8.624	-28.224	0.67496	0.51932	0.50882	-0.12552	24.2	13111	100
2025-5-25 10:12:16.968	WT901BLE68(801231B9234C)	-3.708	-0.285	0.462	76.904	-176.697	-164.429	92.91	76.96	20.66	26.656	8.624	-28.224	0.67496	0.51932	0.50882	-0.12552	24.2	13111	100
2025-5-25 10:12:16.968	WT901BLE68(801231B9234C)	-2.743	1.683	0.302	80.994	-254.639	-186.829	69.75	80.28	-5.02	32.438	7.056	-21.854	0.67496	0.51932	0.50882	-0.12552	24.2	13111	100
2025-5-25 10:12:17.32	WT901BLE68(801231B9234C)	-1.892	0.487	0.489	80.444	-249.023	-221.436	31.98	80.47	-44.87	32.438	7.056	-21.854	0.67496	0.51932	0.50882	-0.12552	24.2	13111	100
2025-5-25 10:12:17.33	WT901BLE68(801231B9234C)	-1.492	0.936	0.474	105.286	-91.614	-215.698	6.05	78.86	-73.22	32.438	7.056	-21.854	0.67496	0.51932	0.50882	-0.12552	24.2	13111	100
2025-5-25 10:12:17.57	WT901BLE68(801231B9234C)	-1.401	0.999	0.376	95.215	79.285	-170.288	-10.33	79.21	-91.74	32.438	7.056	-21.854	0.67496	0.51932	0.50882	-0.12552	24.2	13111	100
2025-5-25 10:12:17.57	WT901BLE68(801231B9234C)	-1.215	0.695	0.267	109.924	135.010	-138.245	-27.21	80.72	-110.68	32.438	7.056	-21.854	0.67496	0.51932	0.50882	-0.12552	24.2	13111	100
2025-5-25 10:12:17.100	WT901BLE68(801231B9234C)	-0.782	0.684	0.228	136.780	75.256	-106.812	-42.15	81.16	-128.08	32.438	7.056	-21.854	0.67496	0.51932	0.50882	-0.12552	24.2	13111	100
2025-5-25 10:12:17.100	WT901BLE68(801231B9234C)	-0.249	0.702	0.133	155.029	18.311	-77.698	-48.72	80.63	-137.41	32.438	7.056	-21.854	0.67496	0.51932	0.50882	-0.12552	24.2	13111	100
2025-5-25 10:12:17.148	WT901BLE68(801231B9234C)	0.170	0.663	0.007	157.593	-18.982	-56.091	-48.59	79.84	-140.05	32.438	7.056	-21.854	0.67496	0.51932	0.50882	-0.12552	24.2	13111	100
2025-5-25 10:12:17.148	WT901BLE68(801231B9234C)	0.435	0.742	-0.094	146.545	-28.931	-42.786	-45.92	79.11	-139.97	32.438	7.056	-21.854	0.67496	0.51932	0.50882	-0.12552	24.2	13111	100
2025-5-25 10:12:17.168	WT901BLE68(801231B9234C)	0.549	0.878	-0.168	118.530	-13.428	-26.184	-43.17	78.74	-139.34	32.438	7.056	-21.854	0.67496	0.51932	0.50882	-0.12552	24.2	13111	100
2025-5-25 10:12:17.168	WT901BLE68(801231B9234C)	0.486	0.783	-0.111	70.923	21.423	2.502	-41.34	79.28	-138.82	32.438	7.056	-21.854	0.46133	0.46729	0.45959	-0.59790	24.2	13111	100
2025-5-25 10:12:17.214	WT901BLE68(801231B9234C)	0.309	0.522	-0.096	31.311	54.749	42.908	-39.61	80.92	-137.50	32.438	7.056	-21.854	0.46133	0.46729	0.45959	-0.59790	24.2	13111	100
2025-5-25 10:12:17.215	WT901BLE68(801231B9234C)	0.093	0.484	-0.127	-0.488	65.247	94.788	-33.59	83.53	-131.20	32.438	7.056	-21.854	0.46133	0.46729	0.45959	-0.59790	24.2	13111	100
2025-5-25 10:12:17.258	WT901BLE68(801231B9234C)	-0.119	0.751	-0.056	-42.664	38.757	137.512	-9.17	86.02	-105.77	32.438	7.056	-21.854	0.46133	0.46729	0.45959	-0.59790	24.2	13111	100
2025-5-25 10:12:17.258	WT901BLE68(801231B9234C)	-0.697	0.843	0.184	-105.774	3.052	181.274	39.65	85.49	-54.79	32.438	7.056	-21.854	0.46133	0.46729	0.45959	-0.59790	24.2	13111	100
2025-5-25 10:12:17.302	WT901BLE68(801231B9234C)	-1.711	0.844	0.295	-165.100	11.597	208.374	63.36	81.85	-27.64	32.438	7.056	-21.854	0.46133	0.46729	0.45959	-0.59790	24.2	13111	100
2025-5-25 10:12:17.303	WT901BLE68(801231B9234C)	-1.992	1.059	0.255	-193.298	74.097	249.207	74.67	77.36	-11.99	32.438	7.056	-21.854	0.46133	0.46729	0.45959	-0.59790	24.2	13111	100
2025-5-25 10:12:17.325	WT901BLE68(801231B9234C)	-3.583	1.135	0.592	-157.043	156.372	383.301	83.47	71.13	1.23	32.438	7.056	-21.854	0.46133	0.46729	0.45959	-0.59790	24.2	13111	100
2025-5-25 10:12:17.325	WT901BLE68(801231B9234C)	-3.522	1.625	0.629	-191.467	313.782	207.458	93.03	65.49	15.62	32.438	7.056	-21.854	0.46133	0.46729	0.45959	-0.59790	24.2	13111	100
2025-5-25 10:12:17.371	WT901BLE68(801231B9234C)	-2.411	0.522	0.739	-151.978	226.318	133.057	99.08	61.81	26.73	32.438	7.056	-21.854	0.46133	0.46729	0.45959	-0.59790	24.2	13111	100
2025-5-25 10:12:17.371	WT901BLE68(801231B9234C)	-1.960	0.142	0.349	-102.356	129.333	96.252	100.94	59.05	31.80	29.498	-0.588	-24.598	0.46133	0.46729	0.45959	-0.59790	24.2	13111	100
2025-5-25 10:12:17.415	WT901BLE68(801231B9234C)	-1.480	-0.051	0.209	-72.144	71.106	109.192	101.17	56.91	34.24	29.498	-0.588	-24.598	0.46133	0.46729	0.45959	-0.59790	24.2	13111	100
2025-5-25 10:12:17.416	WT901BLE68(801231B9234C)	-0.987	-0.296	0.283	-54.688	25.757	98.816	100.22	54.94	34.69	29.498	-0.588	-24.598	0.46133	0.46729	0.45959	-0.59790	24.2	13111	100
2025-5-25 10:12:17.460	WT901BLE68(801231B9234C)	-0.652	-0.417	0.246	-42.725	10.559	77.820	98.99	53.54	34.34	29.498	-0.588	-24.598	0.46133	0.46729	0.45959	-0.59790	24.2	13111	100
2025-5-25 10:12:17.460	WT901BLE68(801231B9234C)	-0.559	-0.439	0.226	-46.448	28.137	63.721	98.20	52.49	34.34	29.498	-0.588	-24.598	0.46133	0.46729	0.45959	-0.59790	24.2	13111	100
2025-5-25 10:12:17.505	WT901BLE68(801231B9234C)	-0.504	-0.488	0.222	-50.354	43.152	54.504	97.89	51.68	34.91	29.498	-0.588	-24.598	0.46133	0.46729	0.45959	-0.59790	24.2	13111	100
2025-5-25 10:12:17.505	WT901BLE68(801231B9234C)	-0.315	-0.605	0.253	-46.448	32.166	44.617	97.75	51.09	35.44	29.498	-0.588	-24.598	0.46133	0.46729	0.45959	-0.59790	24.2	13111	100
2025-5-25 10:12:17.529	WT901BLE68(801231B9234C)	-0.077	-0.767	0.290	-35.034	2.136	25.208	97.46	50.94	35.24	29.498	-0.588	-24.598	0.46133	0.46729	0.45959	-0.59790	24.2	13111	100
2025-5-25 10:12:17.529	WT901BLE68(801231B9234C)	0.031	-0.919	0.302	-22.095	-31.311	-11.353	96.88	51.51	34.11	29.498	-0.588	-24.598	0.46133	0.46729	0.45959	-0.59790	24.2	13111	100
2025-5-25 10:12:17.573	WT901BLE68(801231B9234C)	-0.038	-0.975	0.272	-0.793	-41.443	-52.185	96.54	52.97	32.67	29.498	-0.588	-24.598	0.46133	0.46729	0.45959	-0.59790	24.2	13111	100
2025-5-25 10:12:17.573	WT901BLE68(801231B9234C)	-0.240	-0.846	0.244	25.085	-34.912	-86.487	96.96	55.19	31.56	29.498	-0.588	-24.598	0.65292	0.55930	0.47571	-0.18561	24.2	13111	100
2025-5-25 10:12:17.620	WT901BLE68(801231B9234C)	-0.451	-0.712	0.240	51.392	-36.011	-117.859	98.25	58.07	30.89	29.498	-0.588	-24.598	0.65292	0.55930	0.47571	-0.18561	24.2	13111	100
2025-5-25 10:12:17.621	WT901BLE68(801231B9234C)	-0.713	-0.616	0.221	74.463	-55.115	-147.278	99.87	61.62	30.08	29.498	-0.588	-24.598	0.65292	0.55930	0.47571	-0.18561	24.2	13111	100
2025-5-25 10:12:17.663	WT901BLE68(801231B9234C)	-1.699	-0.583	0.306	83.862	-55.847	-165.100	101.72	65.67	29.24	29.498	-0.588	-24.598	0.65292	0.55930	0.47571	-0.18561	24.2	13111	100
2025-5-25 10:12:17.663	WT901BLE68(801231B9234C)	-3.598	-0.656	0.439	70.007	-35.706	-178.589	104.34	69.86	29.39	29.498	-0.588	-24.598	0.65292	0.55930	0.47571	-0.18561	24.2	13111	100
2025-5-25 10:12:17.707	WT901BLE68(801231B9234C)	-3.865	-0.547	0.300	72.937	-91.797	-193.726	106.79	74.31	29.69	29.498	-0.588	-24.598	0.65292	0.55930	0.47571	-0.18561	24.2	13111	100
2025-5-25 10:12:17.707	WT901BLE68(801231B9234C)	-3.011	0.225	0.210	102.722	-222.717	-221.741	97.94	79.66	18.09	29.498	-0.588	-24.598	0.65292	0.55930	0.47571	-0.18561	24.2	13111	100
2025-5-25 10:12:17.732	WT901BLE68(801231B9234C)	-2.244	1.083	0.317	113.037	-162.964	-237.732	70.27	84.40	-12.29	29.498	-0.588	-24.598	0.65292	0.55930	0.47571	-0.18561	24.2	13111	100
2025-5-25 10:12:17.732	WT901BLE68(801231B9234C)	-1.908	1.375	0.243	125.671	-15.625	-262.939	8.69	87.15	-76.64	29.498	-0.588	-24.598	0.65292	0.55930	0.47571	-0.18561	24.2	13111	100
2025-5-25 10:12:17.776	WT901BLE68(801231B9234C)	-1.733	1.055	0.200	100.769	84.961	-190.002	-57.11	86.28	-144.60	29.498	-0.588	-24.598	0.65292	0.55930	0.47571	-0.18561	24.2	13111	100
2025-5-25 10:12:17.776	WT901BLE68(801231B9234C)	-1.207	0.725	0.146	122.803	60.120	-161.621	-81.69	83.73	-171.28	27.930	5.096	-25.578	0.65292	0.55930	0.47571	-0.18561	24.2	13111	100
2025-5-25 10:12:17.822	WT901BLE68(801231B9234C)	-0.626	0.833	0.066	145.874	2.808	-123.535	-84.06	81.27	-176.17	27.930	5.096	-25.578	0.65292	0.55930	0.47571	-0.18561	24.2	13111	100
2025-5-25 10:12:17.822	WT901BLE68(801231B9234C)	-0.195	0.799	0.023	145.935	-10.132	-84.778	-81.65	79.60	-176.31	27.930	5.096	-25.578	0.65292	0.55930	0.47571	-0.18561	24.2	13111	100
2025-5-25 10:12:17.865	WT901BLE68(801231B9234C)	0.049	0.770	-0.018	136.475	-0.366	-51.880	-79.45	78.69	-176.48	27.930	5.096	-25.578	0.65292	0.55930	0.47571	-0.18561	24.2	13111	100
2025-5-25 10:12:17.865	WT901BLE68(801231B9234C)	0.197	0.752	-0.053	121.033	15.137	-30.518	-78.67	78.41	-177.77	27.930	5.096	-25.578	0.65292	0.55930	0.47571	-0.18561	24.2	13111	100
2025-5-25 10:12:17.910	WT901BLE68(801231B9234C)	0.349	0.775	-0.108	102.844	25.024	-18.982	-79.30	78.55	179.87	27.930	5.096	-25.578	0.65292	0.55930	0.47571	-0.18561	24.2	13111	100
2025-5-25 10:12:17.910	WT901BLE68(801231B9234C)	0.581	0.837	-0.142	69.153	23.193	0.916	-80.73	79.06	177.28	27.930	5.096	-25.578	0.65292	0.55930	0.47571	-0.18561	24.2	13111	100
2025-5-25 10:12:17.934	WT901BLE68(801231B9234C)	0.645	0.743	-0.114	8.179	27.161	41.138	-83.38	80.29	174.50	27.930	5.096	-25.578	0.65292	0.55930	0.47571	-0.18561	24.2	13111	100
2025-5-25 10:12:17.934	WT901BLE68(801231B9234C)	0.445	0.566	-0.186	-57.739	52.551	81.116	-90.81	82.41	168.22	27.930	5.096	-25.578	0.65292	0.55930	0.47571	-0.18561	24.2	13111	100
2025-5-25 10:12:17.978	WT901BLE68(801231B9234C)	0.145	0.672	-0.267	-115.967	78.247	115.601	-112.26	84.88	149.04	27.930	5.096	-25.578	0.65292	0.55930	0.47571	-0.18561	24.2	13111	100
2025-5-25 10:12:17.978	WT901BLE68(801231B9234C)	-0.229	0.846	-0.253	-184.326	71.655	151.001	-160.91	86.01	103.82	27.930	5.096	-25.578	0.47437	0.54163	0.50415	-0.47681	24.2	13111	100
2025-5-25 10:12:18.23	WT901BLE68(801231B9234C)	-1.024	0.802	-0.110	-256.836	44.373	183.167	150.78	84.02	60.35	27.930	5.096	-25.578	0.47437	0.54163	0.50415	-0.47681	24.2	13111	100
2025-5-25 10:12:18.23	WT901BLE68(801231B9234C)	-2.353	0.900	-0.153	-293.396	46.997	181.030	127.60	80.16	42.99	27.930	5.096	-25.578	0.47437	0.54163	0.50415	-0.47681	24.2	13111	100
2025-5-25 10:12:18.67	WT901BLE68(801231B9234C)	-2.729	0.847	-0.027	-338.623	46.631	224.976	114.93	75.38	36.63	27.930	5.096	-25.578	0.47437	0.54163	0.50415	-0.47681	24.2	13111	100
2025-5-25 10:12:18.67	WT901BLE68(801231B9234C)	-3.423	0.917	0.604	-243.469	67.139	297.485	106.27	69.20	33.70	27.930	5.096	-25.578	0.47437	0.54163	0.50415	-0.47681	24.2	13111	100
2025-5-25 10:12:18.92	WT901BLE68(801231B9234C)	-3.394	1.360	0.757	-194.519	145.569	218.262	103.97	63.54	35.99	27.930	5.096	-25.578	0.47437	0.54163	0.50415	-0.47681	24.2	13111	100
2025-5-25 10:12:18.92	WT901BLE68(801231B9234C)	-2.654	0.557	0.692	-148.865	102.112	165.588	103.17	59.50	39.28	27.930	5.096	-25.578	0.47437	0.54163	0.50415	-0.47681	24.2	13111	100
2025-5-25 10:12:18.135	WT901BLE68(801231B9234C)	-2.090	0.012	0.430	-92.468	45.715	150.757	101.39	56.24	40.02	27.930	5.096	-25.578	0.47437	0.54163	0.50415	-0.47681	24.2	13111	100
2025-5-25 10:12:18.135	WT901BLE68(801231B9234C)	-1.574	-0.249	0.236	-72.327	10.193	136.536	99.49	53.63	39.77	27.930	5.096	-25.578	0.47437	0.54163	0.50415	-0.47681	24.2	13111	100
2025-5-25 10:12:18.180	WT901BLE68(801231B9234C)	-1.138	-0.348	0.184	-57.678	-13.062	128.296	97.38	51.39	38.72	27.930	5.096	-25.578	0.47437	0.54163	0.50415	-0.47681	24.2	13111	100
2025-5-25 10:12:18.181	WT901BLE68(801231B9234C)	-0.864	-0.610	0.123	-52.246	-11.780	109.131	95.55	49.45	37.61	35.280	-2.646	-17.542	0.47437	0.54163	0.50415	-0.47681	24.2	13111	100
2025-5-25 10:12:18.225	WT901BLE68(801231B9234C)	-0.679	-0.829	0.152	-41.443	5.127	68.726	94.47	48.26	36.96	35.280	-2.646	-17.542	0.47437	0.54163	0.50415	-0.47681	24.2	13111	100
2025-5-25 10:12:18.225	WT901BLE68(801231B9234C)	-0.514	-0.869	0.222	-34.851	6.897	39.856	94.04	47.75	36.64	35.280	-2.646	-17.542	0.47437	0.54163	0.50415	-0.47681	24.2	13111	100
2025-5-25 10:12:18.270	WT901BLE68(801231B9234C)	-0.307	-0.899	0.280	-32.654	-9.399	13.794	93.70	47.81	36.08	35.280	-2.646	-17.542	0.47437	0.54163	0.50415	-0.47681	24.2	13111	100
2025-5-25 10:12:18.270	WT901BLE68(801231B9234C)	-0.170	-1.008	0.285	-26.184	-33.936	-27.893	93.16	48.64	34.96	35.280	-2.646	-17.542	0.47437	0.54163	0.50415	-0.47681	24.2	13111	100
2025-5-25 10:12:18.294	WT901BLE68(801231B9234C)	-0.126	-1.031	0.220	-14.771	-54.077	-72.266	92.43	50.40	33.23	35.280	-2.646	-17.542	0.47437	0.54163	0.50415	-0.47681	24.2	13111	100
2025-5-25 10:12:18.294	WT901BLE68(801231B9234C)	-0.121	-0.969	0.113	5.676	-59.021	-110.840	91.88	53.03	31.31	35.280	-2.646	-17.542	0.47437	0.54163	0.50415	-0.47681	24.2	13111	100
2025-5-25 10:12:18.337	WT901BLE68(801231B9234C)	-0.202	-0.828	0.046	31.738	-61.035	-134.644	91.75	56.27	29.38	35.280	-2.646	-17.542	0.47437	0.54163	0.50415	-0.47681	24.2	13111	100
2025-5-25 10:12:18.337	WT901BLE68(801231B9234C)	-0.447	-0.637	0.075	55.908	-60.547	-149.963	91.96	59.90	27.36	35.280	-2.646	-17.542	0.47437	0.54163	0.50415	-0.47681	24.2	13111	100
2025-5-25 10:12:18.383	WT901BLE68(801231B9234C)	-1.192	-0.484	0.143	69.763	-44.434	-154.663	92.81	63.70	25.76	35.280	-2.646	-17.542	0.47437	0.54163	0.50415	-0.47681	24.2	13111	100
2025-5-25 10:12:18.383	WT901BLE68(801231B9234C)	-2.927	-0.487	0.273	68.237	-3.174	-165.466	94.93	67.58	25.57	35.280	-2.646	-17.542	0.62253	0.51376	0.50955	-0.29788	24.2	13111	100
2025-5-25 10:12:18.427	WT901BLE68(801231B9234C)	-4.199	-0.591	0.189	44.739	-44.067	-195.801	97.70	71.85	26.53	35.280	-2.646	-17.542	0.62253	0.51376	0.50955	-0.29788	24.2	13111	100
2025-5-25 10:12:18.428	WT901BLE68(801231B9234C)	-3.320	-0.089	0.148	80.933	-317.505	-225.342	85.24	76.87	11.69	35.280	-2.646	-17.542	0.62253	0.51376	0.50955	-0.29788	24.2	13111	100
2025-5-25 10:12:18.472	WT901BLE68(801231B9234C)	-2.189	0.417	0.295	80.200	-363.770	-233.093	49.20	78.43	-27.53	35.280	-2.646	-17.542	0.62253	0.51376	0.50955	-0.29788	24.2	13111	100
2025-5-25 10:12:18.473	WT901BLE68(801231B9234C)	-1.445	0.855	0.727	108.887	-174.500	-282.104	18.61	77.22	-60.97	35.280	-2.646	-17.542	0.62253	0.51376	0.50955	-0.29788	24.2	13111	100
2025-5-25 10:12:18.497	WT901BLE68(801231B9234C)	-1.529	1.640	0.662	103.516	83.252	-218.262	-0.81	77.81	-83.15	35.280	-2.646	-17.542	0.62253	0.51376	0.50955	-0.29788	24.2	13111	100
2025-5-25 10:12:18.497	WT901BLE68(801231B9234C)	-1.294	0.809	0.465	83.008	255.493	-200.745	-23.86	81.15	-108.10	35.280	-2.646	-17.542	0.62253	0.51376	0.50955	-0.29788	24.2	13111	100
2025-5-25 10:12:18.540	WT901BLE68(801231B9234C)	-0.892	0.720	0.262	144.226	239.624	-138.245	-60.00	83.06	-146.81	35.280	-2.646	-17.542	0.62253	0.51376	0.50955	-0.29788	24.2	13111	100
2025-5-25 10:12:18.541	WT901BLE68(801231B9234C)	-0.456	0.963	0.167	152.588	168.701	-91.858	-87.98	82.32	-177.78	35.280	-2.646	-17.542	0.62253	0.51376	0.50955	-0.29788	24.2	13111	100
2025-5-25 10:12:18.585	WT901BLE68(801231B9234C)	-0.211	0.857	0.155	138.245	93.628	-55.908	-100.51	81.15	167.04	35.280	-2.646	-17.542	0.62253	0.51376	0.50955	-0.29788	24.2	13111	100
2025-5-25 10:12:18.585	WT901BLE68(801231B9234C)	0.094	0.757	0.081	122.925	12.390	-45.349	-101.94	80.49	163.52	26.264	8.134	-27.930	0.62253	0.51376	0.50955	-0.29788	24.2	13111	100
2025-5-25 10:12:18.632	WT901BLE68(801231B9234C)	0.404	0.737	-0.029	106.079	-33.081	-32.898	-97.81	80.23	165.97	26.264	8.134	-27.930	0.62253	0.51376	0.50955	-0.29788	24.2	13111	100
2025-5-25 10:12:18.632	WT901BLE68(801231B9234C)	0.573	0.701	-0.130	83.496	-44.617	-16.479	-91.74	80.40	170.88	26.264	8.134	-27.930	0.62253	0.51376	0.50955	-0.29788	24.2	13111	100
2025-5-25 10:12:18.675	WT901BLE68(801231B9234C)	0.564	0.615	-0.114	47.119	-27.344	5.920	-87.72	80.93	174.31	26.264	8.134	-27.930	0.62253	0.51376	0.50955	-0.29788	24.2	13111	100
2025-5-25 10:12:18.675	WT901BLE68(801231B9234C)	0.352	0.505	-0.108	13.733	2.686	42.542	-87.40	82.21	174.68	26.264	8.134	-27.930	0.62253	0.51376	0.50955	-0.29788	24.2	13111	100
2025-5-25 10:12:18.699	WT901BLE68(801231B9234C)	0.085	0.639	-0.121	-26.672	26.001	94.421	-93.15	84.47	169.67	26.264	8.134	-27.930	0.62253	0.51376	0.50955	-0.29788	24.2	13111	100
2025-5-25 10:12:18.700	WT901BLE68(801231B9234C)	-0.203	0.829	-0.078	-74.829	25.696	156.250	-117.38	87.67	146.99	26.264	8.134	-27.930	0.62253	0.51376	0.50955	-0.29788	24.2	13111	100
2025-5-25 10:12:18.743	WT901BLE68(801231B9234C)	-1.344	0.823	0.162	-139.526	-5.615	210.205	129.64	87.75	36.65	26.264	8.134	-27.930	0.62253	0.51376	0.50955	-0.29788	24.2	13111	100
2025-5-25 10:12:18.743	WT901BLE68(801231B9234C)	-2.863	1.158	0.091	-194.824	-13.855	214.172	101.54	83.10	12.39	26.264	8.134	-27.930	0.62253	0.51376	0.50955	-0.29788	24.2	13111	100
2025-5-25 10:12:18.788	WT901BLE68(801231B9234C)	-2.371	1.262	0.167	-209.778	-27.832	310.547	92.02	77.35	7.44	26.264	8.134	-27.930	0.62253	0.51376	0.50955	-0.29788	24.2	13111	100
2025-5-25 10:12:18.788	WT901BLE68(801231B9234C)	-2.717	0.889	0.753	-135.010	-24.414	330.444	86.04	70.26	5.04	26.264	8.134	-27.930	0.62253	0.51376	0.50955	-0.29788	24.2	13111	100
2025-5-25 10:12:18.835	WT901BLE68(801231B9234C)	-2.800	1.173	0.950	-129.883	176.697	194.946	88.75	65.23	11.09	26.264	8.134	-27.930	0.63464	0.55411	0.43613	-0.31598	24.2	13111	100
2025-5-25 10:12:18.835	WT901BLE68(801231B9234C)	-2.207	0.435	0.835	-99.060	229.980	148.743	94.72	61.80	20.70	26.264	8.134	-27.930	0.63464	0.55411	0.43613	-0.31598	24.2	13111	100
2025-5-25 10:12:18.878	WT901BLE68(801231B9234C)	-1.833	0.079	0.597	-67.566	174.194	122.009	98.86	58.73	27.50	26.264	8.134	-27.930	0.63464	0.55411	0.43613	-0.31598	24.2	13111	100
2025-5-25 10:12:18.879	WT901BLE68(801231B9234C)	-1.541	-0.088	0.450	-60.425	113.281	97.778	100.78	56.31	31.51	26.264	8.134	-27.930	0.63464	0.55411	0.43613	-0.31598	24.2	13111	100
2025-5-25 10:12:18.902	WT901BLE68(801231B9234C)	-1.243	-0.158	0.395	-66.895	33.630	82.275	100.43	54.59	32.80	26.264	8.134	-27.930	0.63464	0.55411	0.43613	-0.31598	24.2	13111	100
2025-5-25 10:12:18.902	WT901BLE68(801231B9234C)	-0.865	-0.213	0.339	-73.059	-20.752	68.237	98.29	53.48	32.00	26.264	8.134	-27.930	0.63464	0.55411	0.43613	-0.31598	24.2	13111	100
2025-5-25 10:12:18.948	WT901BLE68(801231B9234C)	-0.506	-0.267	0.258	-80.383	-41.565	61.890	95.34	52.67	30.22	26.264	8.134	-27.930	0.63464	0.55411	0.43613	-0.31598	24.2	13111	100
2025-5-25 10:12:18.948	WT901BLE68(801231B9234C)	-0.217	-0.362	0.167	-86.060	-28.259	64.880	92.46	51.86	28.54	26.264	8.134	-27.930	0.63464	0.55411	0.43613	-0.31598	24.2	13111	100
2025-5-25 10:12:18.990	WT901BLE68(801231B9234C)	0.000	-0.507	0.092	-82.764	1.038	66.162	90.38	51.01	27.69	34.594	-2.254	-21.168	0.63464	0.55411	0.43613	-0.31598	24.2	13111	100
2025-5-25 10:12:18.990	WT901BLE68(801231B9234C)	0.028	-0.849	0.082	-76.721	27.344	46.387	89.30	50.42	27.74	34.594	-2.254	-21.168	0.63464	0.55411	0.43613	-0.31598	24.2	13111	100
2025-5-25 10:12:19.35	WT901BLE68(801231B9234C)	-0.090	-1.195	0.117	-57.739	33.081	-4.028	89.10	50.72	28.26	34.594	-2.254	-21.168	0.63464	0.55411	0.43613	-0.31598	24.2	13111	100
2025-5-25 10:12:19.35	WT901BLE68(801231B9234C)	-0.130	-1.214	0.118	-27.405	10.498	-42.908	89.46	51.99	28.56	34.594	-2.254	-21.168	0.63464	0.55411	0.43613	-0.31598	24.2	13111	100
2025-5-25 10:12:19.59	WT901BLE68(801231B9234C)	-0.198	-1.062	0.105	4.944	-11.353	-63.843	90.09	53.84	28.29	34.594	-2.254	-21.168	0.63464	0.55411	0.43613	-0.31598	24.2	13111	100
2025-5-25 10:12:19.60	WT901BLE68(801231B9234C)	-0.414	-0.847	0.090	43.091	-18.127	-91.003	91.27	56.19	27.84	34.594	-2.254	-21.168	0.63464	0.55411	0.43613	-0.31598	24.2	13111	100
2025-5-25 10:12:19.103	WT901BLE68(801231B9234C)	-0.859	-0.702	0.113	75.012	-31.250	-123.413	93.02	59.17	27.28	34.594	-2.254	-21.168	0.63464	0.55411	0.43613	-0.31598	24.2	13111	100
2025-5-25 10:12:19.103	WT901BLE68(801231B9234C)	-2.055	-0.616	0.154	100.830	-41.931	-163.757	95.13	62.90	26.50	34.594	-2.254	-21.168	0.63464	0.55411	0.43613	-0.31598	24.2	13111	100
2025-5-25 10:12:19.147	WT901BLE68(801231B9234C)	-3.292	-0.583	0.451	98.938	-30.579	-216.492	97.70	67.56	26.10	34.594	-2.254	-21.168	0.63464	0.55411	0.43613	-0.31598	24.2	13111	100
2025-5-25 10:12:19.147	WT901BLE68(801231B9234C)	-3.850	-0.389	0.696	85.083	-143.005	-194.641	97.75	72.43	23.41	34.594	-2.254	-21.168	0.63464	0.55411	0.43613	-0.31598	24.2	13111	100
2025-5-25 10:12:19.193	WT901BLE68(801231B9234C)	-3.443	0.303	0.487	76.904	-237.000	-207.458	85.18	76.89	7.98	34.594	-2.254	-21.168	0.63464	0.55411	0.43613	-0.31598	24.2	13111	100
2025-5-25 10:12:19.193	WT901BLE68(801231B9234C)	-1.916	0.417	0.480	76.355	-266.357	-261.597	54.90	80.18	-24.49	34.594	-2.254	-21.168	0.63464	0.55411	0.43613	-0.31598	24.2	13111	100
2025-5-25 10:12:19.239	WT901BLE68(801231B9234C)	-1.585	1.269	0.425	139.648	-112.549	-237.915	22.59	80.41	-59.99	34.594	-2.254	-21.168	0.58633	0.44745	0.46771	-0.48697	24.2	13111	100
2025-5-25 10:12:19.240	WT901BLE68(801231B9234C)	-1.592	1.264	0.499	91.492	110.901	-200.195	0.73	81.95	-84.11	34.594	-2.254	-21.168	0.58633	0.44745	0.46771	-0.48697	24.2	13111	100
2025-5-25 10:12:19.262	WT901BLE68(801231B9234C)	-1.079	0.743	0.323	127.930	177.734	-171.570	-30.28	84.39	-117.22	34.594	-2.254	-21.168	0.58633	0.44745	0.46771	-0.48697	24.2	13111	100
2025-5-25 10:12:19.262	WT901BLE68(801231B9234C)	-0.638	0.984	0.183	167.419	146.667	-118.408	-65.92	84.62	-155.81	34.594	-2.254	-21.168	0.58633	0.44745	0.46771	-0.48697	24.2	13111	100
2025-5-25 10:12:19.305	WT901BLE68(801231B9234C)	-0.361	0.938	0.137	161.316	142.151	-82.825	-90.44	83.68	176.64	34.594	-2.254	-21.168	0.58633	0.44745	0.46771	-0.48697	24.2	13111	100
2025-5-25 10:12:19.305	WT901BLE68(801231B9234C)	-0.200	0.786	0.117	151.062	124.817	-56.091	-106.27	82.30	158.11	34.594	-2.254	-21.168	0.58633	0.44745	0.46771	-0.48697	24.2	13111	100
2025-5-25 10:12:19.349	WT901BLE68(801231B9234C)	-0.054	0.754	0.078	136.475	72.998	-35.400	-114.24	81.25	147.77	34.594	-2.254	-21.168	0.58633	0.44745	0.46771	-0.48697	24.2	13111	100
2025-5-25 10:12:19.350	WT901BLE68(801231B9234C)	0.190	0.794	0.008	118.713	1.831	-27.161	-115.13	80.89	144.99	34.594	-2.254	-21.168	0.58633	0.44745	0.46771	-0.48697	24.2	13111	100
2025-5-25 10:12:19.395	WT901BLE68(801231B9234C)	0.419	0.765	-0.013	89.172	-56.885	-22.766	-109.94	81.18	148.88	34.594	-2.254	-21.168	0.58633	0.44745	0.46771	-0.48697	24.2	13111	100
2025-5-25 10:12:19.396	WT901BLE68(801231B9234C)	0.474	0.642	0.007	45.776	-79.651	-17.761	-101.41	81.71	156.96	34.594	-2.254	-21.168	0.58633	0.44745	0.46771	-0.48697	24.2	13111	100
2025-5-25 10:12:19.442	WT901BLE68(801231B9234C)	0.419	0.708	-0.088	-11.536	-57.312	26.428	-94.75	82.64	164.15	29.106	6.076	-24.892	0.58633	0.44745	0.46771	-0.48697	24.2	13111	100
2025-5-25 10:12:19.442	WT901BLE68(801231B9234C)	0.221	0.613	-0.188	-65.674	-12.878	70.679	-95.05	84.49	165.45	29.106	6.076	-24.892	0.58633	0.44745	0.46771	-0.48697	24.2	13111	100
2025-5-25 10:12:19.465	WT901BLE68(801231B9234C)	-0.186	0.747	-0.165	-108.337	14.648	119.324	-110.43	87.13	152.41	29.106	6.076	-24.892	0.58633	0.44745	0.46771	-0.48697	24.2	13111	100
2025-5-25 10:12:19.465	WT901BLE68(801231B9234C)	-1.078	0.802	-0.086	-167.053	9.705	172.119	158.45	88.53	64.63	29.106	6.076	-24.892	0.58633	0.44745	0.46771	-0.48697	24.2	13111	100
2025-5-25 10:12:19.507	WT901BLE68(801231B9234C)	-2.839	0.899	-0.336	-208.313	13.794	183.960	112.59	84.79	23.02	29.106	6.076	-24.892	0.58633	0.44745	0.46771	-0.48697	24.2	13111	100
2025-5-25 10:12:19.508	WT901BLE68(801231B9234C)	-2.661	1.405	-0.310	-235.901	57.678	282.654	103.21	79.51	18.67	29.106	6.076	-24.892	0.58633	0.44745	0.46771	-0.48697	24.2	13111	100
2025-5-25 10:12:19.552	WT901BLE68(801231B9234C)	-2.641	0.578	0.282	-149.658	74.463	333.801	99.22	72.38	18.72	29.106	6.076	-24.892	0.58633	0.44745	0.46771	-0.48697	24.2	13111	100
2025-5-25 10:12:19.552	WT901BLE68(801231B9234C)	-2.865	0.810	0.528	-122.131	225.769	197.266	102.55	66.60	25.40	29.106	6.076	-24.892	0.58633	0.44745	0.46771	-0.48697	24.2	13111	100
2025-5-25 10:12:19.598	WT901BLE68(801231B9234C)	-2.396	0.240	0.606	-117.249	216.736	122.437	107.59	62.64	34.06	29.106	6.076	-24.892	0.58633	0.44745	0.46771	-0.48697	24.2	13111	100
2025-5-25 10:12:19.599	WT901BLE68(801231B9234C)	-2.018	-0.081	0.400	-92.957	150.513	112.671	109.57	59.40	38.89	29.106	6.076	-24.892	0.58633	0.44745	0.46771	-0.48697	24.2	13111	100
2025-5-25 10:12:19.643	WT901BLE68(801231B9234C)	-1.729	-0.265	0.219	-76.477	111.755	93.079	110.25	56.87	41.85	29.106	6.076	-24.892	0.60638	0.58203	0.50949	-0.18390	24.2	13111	100
2025-5-25 10:12:19.643	WT901BLE68(801231B9234C)	-1.350	-0.453	0.220	-64.941	57.007	70.984	109.96	55.13	43.29	29.106	6.076	-24.892	0.60638	0.58203	0.50949	-0.18390	24.2	13111	100
2025-5-25 10:12:19.667	WT901BLE68(801231B9234C)	-0.859	-0.518	0.250	-55.298	-10.742	50.964	108.48	54.35	42.84	29.106	6.076	-24.892	0.60638	0.58203	0.50949	-0.18390	24.2	13111	100
2025-5-25 10:12:19.667	WT901BLE68(801231B9234C)	-0.456	-0.538	0.262	-56.335	-59.937	39.490	105.83	54.26	40.66	29.106	6.076	-24.892	0.60638	0.58203	0.50949	-0.18390	24.2	13111	100
2025-5-25 10:12:19.732	WT901BLE68(801231B9234C)	-0.201	-0.620	0.297	-56.763	-63.904	30.334	102.90	54.40	37.88	29.106	6.076	-24.892	0.60638	0.58203	0.50949	-0.18390	24.2	13111	100
2025-5-25 10:12:19.732	WT901BLE68(801231B9234C)	-0.036	-0.813	0.383	-49.316	-49.805	11.597	100.54	54.74	35.45	29.106	6.076	-24.892	0.60638	0.58203	0.50949	-0.18390	24.2	13111	100
2025-5-25 10:12:19.757	WT901BLE68(801231B9234C)	0.087	-0.933	0.437	-35.706	-38.330	-15.076	99.16	55.50	33.65	29.106	6.076	-24.892	0.60638	0.58203	0.50949	-0.18390	24.2	13111	100
2025-5-25 10:12:19.757	WT901BLE68(801231B9234C)	0.082	-0.994	0.389	-11.902	-30.090	-50.232	98.69	56.90	32.37	29.106	6.076	-24.892	0.60638	0.58203	0.50949	-0.18390	24.2	13111	100
2025-5-25 10:12:19.802	WT901BLE68(801231B9234C)	-0.019	-0.842	0.331	15.198	-20.264	-80.444	99.49	59.00	31.90	29.106	6.076	-24.892	0.60638	0.58203	0.50949	-0.18390	24.2	13111	100
2025-5-25 10:12:19.802	WT901BLE68(801231B9234C)	-0.196	-0.752	0.270	40.710	-14.343	-95.154	101.23	61.46	32.01	29.106	6.076	-24.892	0.60638	0.58203	0.50949	-0.18390	24.2	13111	100
2025-5-25 10:12:19.824	WT901BLE68(801231B9234C)	-0.485	-0.645	0.262	69.702	-20.630	-115.540	104.07	64.23	32.68	37.142	-0.392	-17.836	0.60638	0.58203	0.50949	-0.18390	24.2	13111	100
2025-5-25 10:12:19.825	WT901BLE68(801231B9234C)	-1.104	-0.525	0.193	100.708	-29.114	-130.249	107.84	67.40	33.71	37.142	-0.392	-17.836	0.60638	0.58203	0.50949	-0.18390	24.2	13111	100
2025-5-25 10:12:19.891	WT901BLE68(801231B9234C)	-2.458	-0.586	0.251	108.398	-44.800	-150.757	112.38	70.91	35.23	37.142	-0.392	-17.836	0.60638	0.58203	0.50949	-0.18390	24.2	13111	100
2025-5-25 10:12:19.891	WT901BLE68(801231B9234C)	-2.884	-0.712	0.441	103.271	-84.534	-165.222	116.88	74.95	36.82	37.142	-0.392	-17.836	0.60638	0.58203	0.50949	-0.18390	24.2	13111	100
2025-5-25 10:12:19.914	WT901BLE68(801231B9234C)	-2.805	-0.307	0.398	110.901	-203.613	-125.977	112.91	79.38	29.72	37.142	-0.392	-17.836	0.60638	0.58203	0.50949	-0.18390	24.2	13111	100
2025-5-25 10:12:19.914	WT901BLE68(801231B9234C)	-2.954	0.130	0.331	77.148	-162.292	-139.404	97.32	83.29	11.44	37.142	-0.392	-17.836	0.60638	0.58203	0.50949	-0.18390	24.2	13111	100
2025-5-25 10:12:19.958	WT901BLE68(801231B9234C)	-2.682	0.463	0.587	54.199	-107.300	-172.363	68.07	86.57	-19.37	37.142	-0.392	-17.836	0.60638	0.58203	0.50949	-0.18390	24.2	13111	100
2025-5-25 10:12:19.958	WT901BLE68(801231B9234C)	-2.243	0.978	0.384	58.105	-39.734	-178.406	0.86	87.66	-87.90	37.142	-0.392	-17.836	0.60638	0.58203	0.50949	-0.18390	24.2	13111	100
2025-5-25 10:12:20.3	WT901BLE68(801231B9234C)	-1.585	0.999	0.063	40.894	57.983	-157.898	-51.33	86.52	-140.98	37.142	-0.392	-17.836	0.60638	0.58203	0.50949	-0.18390	24.2	13111	100
2025-5-25 10:12:20.3	WT901BLE68(801231B9234C)	-1.169	0.772	-0.183	68.176	106.567	-130.798	-82.51	84.70	-173.17	37.142	-0.392	-17.836	0.60638	0.58203	0.50949	-0.18390	24.2	13111	100
2025-5-25 10:12:20.27	WT901BLE68(801231B9234C)	-0.727	0.720	-0.278	98.450	87.952	-105.713	-97.15	82.60	170.60	37.142	-0.392	-17.836	0.44156	0.48300	0.52679	-0.54233	24.2	13111	100
2025-5-25 10:12:20.27	WT901BLE68(801231B9234C)	-0.320	0.816	-0.215	121.399	58.960	-69.458	-102.71	81.04	162.95	37.142	-0.392	-17.836	0.44156	0.48300	0.52679	-0.54233	24.2	13111	100
2025-5-25 10:12:20.72	WT901BLE68(801231B9234C)	-0.008	0.864	-0.116	123.352	8.728	-59.204	-102.45	80.02	161.16	37.142	-0.392	-17.836	0.44156	0.48300	0.52679	-0.54233	24.2	13111	100
2025-5-25 10:12:20.72	WT901BLE68(801231B9234C)	0.247	0.949	-0.120	110.168	-32.471	-72.021	-98.09	79.13	163.75	37.142	-0.392	-17.836	0.44156	0.48300	0.52679	-0.54233	24.2	13111	100
2025-5-25 10:12:20.115	WT901BLE68(801231B9234C)	0.482	1.009	-0.164	82.458	-57.373	-75.317	-92.09	78.15	168.52	37.142	-0.392	-17.836	0.44156	0.48300	0.52679	-0.54233	24.2	13111	100
2025-5-25 10:12:20.115	WT901BLE68(801231B9234C)	0.518	0.847	-0.166	64.148	-47.852	-66.956	-87.15	77.28	172.85	37.142	-0.392	-17.836	0.44156	0.48300	0.52679	-0.54233	24.2	13111	100
2025-5-25 10:12:20.159	WT901BLE68(801231B9234C)	0.432	0.861	-0.107	35.034	-18.433	-43.213	-85.68	76.79	174.01	37.142	-0.392	-17.836	0.44156	0.48300	0.52679	-0.54233	24.2	13111	100
2025-5-25 10:12:20.159	WT901BLE68(801231B9234C)	0.272	0.900	-0.197	-2.869	15.869	19.104	-87.46	77.43	172.46	37.142	-0.392	-17.836	0.44156	0.48300	0.52679	-0.54233	24.2	13111	100
2025-5-25 10:12:20.205	WT901BLE68(801231B9234C)	0.041	0.923	-0.195	-62.744	35.156	109.985	-93.38	79.74	167.76	37.142	-0.392	-17.836	0.44156	0.48300	0.52679	-0.54233	24.2	13111	100
2025-5-25 10:12:20.205	WT901BLE68(801231B9234C)	-0.528	0.688	-0.042	-108.582	39.490	185.242	-107.48	83.49	155.85	37.142	-0.392	-17.836	0.44156	0.48300	0.52679	-0.54233	24.2	13111	100
2025-5-25 10:12:20.230	WT901BLE68(801231B9234C)	-2.059	0.657	0.027	-144.287	74.402	229.858	-158.91	86.44	107.31	24.696	5.390	-23.912	0.44156	0.48300	0.52679	-0.54233	24.2	13111	100
2025-5-25 10:12:20.230	WT901BLE68(801231B9234C)	-3.120	0.803	0.227	-196.899	100.098	245.789	143.83	83.27	53.82	24.696	5.390	-23.912	0.44156	0.48300	0.52679	-0.54233	24.2	13111	100
2025-5-25 10:12:20.295	WT901BLE68(801231B9234C)	-2.908	1.261	0.359	-167.786	31.860	328.552	120.69	77.34	34.83	24.696	5.390	-23.912	0.44156	0.48300	0.52679	-0.54233	24.2	13111	100
2025-5-25 10:12:20.295	WT901BLE68(801231B9234C)	-2.862	0.394	1.002	-133.606	12.146	242.981	108.96	71.93	26.02	24.696	5.390	-23.912	0.44156	0.48300	0.52679	-0.54233	24.2	13111	100
2025-5-25 10:12:20.319	WT901BLE68(801231B9234C)	-2.854	0.335	0.970	-139.954	83.984	170.288	105.41	67.90	25.64	24.696	5.390	-23.912	0.44156	0.48300	0.52679	-0.54233	24.2	13111	100
2025-5-25 10:12:20.319	WT901BLE68(801231B9234C)	-2.283	-0.021	0.802	-124.329	80.261	137.817	104.37	64.55	27.70	24.696	5.390	-23.912	0.44156	0.48300	0.52679	-0.54233	24.2	13111	100
2025-5-25 10:12:20.362	WT901BLE68(801231B9234C)	-1.455	-0.263	0.641	-90.332	-7.813	97.778	101.83	62.42	27.42	24.696	5.390	-23.912	0.44156	0.48300	0.52679	-0.54233	24.2	13111	100
2025-5-25 10:12:20.362	WT901BLE68(801231B9234C)	-0.852	-0.281	0.502	-58.228	-67.505	77.271	97.69	61.22	24.41	24.696	5.390	-23.912	0.44156	0.48300	0.52679	-0.54233	24.2	13111	100
2025-5-25 10:12:20.408	WT901BLE68(801231B9234C)	-0.522	-0.361	0.390	-45.654	-68.970	64.087	93.57	60.30	20.84	24.696	5.390	-23.912	0.44156	0.48300	0.52679	-0.54233	24.2	13111	100
2025-5-25 10:12:20.408	WT901BLE68(801231B9234C)	-0.362	-0.443	0.271	-40.771	-42.114	53.101	90.55	59.57	18.22	24.696	5.390	-23.912	0.44156	0.48300	0.52679	-0.54233	24.2	13111	100
2025-5-25 10:12:20.433	WT901BLE68(801231B9234C)	-0.252	-0.483	0.185	-35.278	-14.526	49.072	88.80	58.98	16.79	24.696	5.390	-23.912	0.66531	0.55597	0.43188	-0.24823	24.2	13111	100
2025-5-25 10:12:20.433	WT901BLE68(801231B9234C)	-0.112	-0.566	0.140	-27.100	-0.244	41.321	87.96	58.55	16.10	24.696	5.390	-23.912	0.66531	0.55597	0.43188	-0.24823	24.2	13111	100
2025-5-25 10:12:20.477	WT901BLE68(801231B9234C)	-0.011	-0.757	0.141	-14.771	2.686	16.479	87.70	58.55	15.66	24.696	5.390	-23.912	0.66531	0.55597	0.43188	-0.24823	24.2	13111	100
2025-5-25 10:12:20.477	WT901BLE68(801231B9234C)	-0.003	-0.896	0.170	0.854	1.404	-25.085	87.89	59.34	15.22	24.696	5.390	-23.912	0.66531	0.55597	0.43188	-0.24823	24.2	13111	100
2025-5-25 10:12:20.520	WT901BLE68(801231B9234C)	-0.045	-0.872	0.138	17.456	-4.395	-56.458	88.43	60.95	14.71	24.696	5.390	-23.912	0.66531	0.55597	0.43188	-0.24823	24.2	13111	100
2025-5-25 10:12:20.520	WT901BLE68(801231B9234C)	-0.145	-0.742	0.107	33.813	-7.263	-71.655	89.34	63.02	14.21	24.696	5.390	-23.912	0.66531	0.55597	0.43188	-0.24823	24.2	13111	100
2025-5-25 10:12:20.564	WT901BLE68(801231B9234C)	-0.457	-0.578	0.125	54.565	-10.559	-88.623	90.70	65.42	13.80	24.696	5.390	-23.912	0.66531	0.55597	0.43188	-0.24823	24.2	13111	100
2025-5-25 10:12:20.564	WT901BLE68(801231B9234C)	-1.214	-0.468	0.203	69.641	-20.264	-110.046	92.27	68.25	13.27	24.696	5.390	-23.912	0.66531	0.55597	0.43188	-0.24823	24.2	13111	100
2025-5-25 10:12:20.589	WT901BLE68(801231B9234C)	-2.772	-0.387	0.468	69.458	-30.151	-140.320	93.47	71.56	12.22	24.696	5.390	-23.912	0.66531	0.55597	0.43188	-0.24823	24.2	13111	100
2025-5-25 10:12:20.590	WT901BLE68(801231B9234C)	-3.034	-0.458	0.791	41.016	-79.285	-158.142	92.45	75.43	9.43	24.696	5.390	-23.912	0.66531	0.55597	0.43188	-0.24823	24.2	13111	100
2025-5-25 10:12:20.633	WT901BLE68(801231B9234C)	-3.411	0.101	1.029	26.855	-290.344	-118.408	73.62	78.14	-11.06	26.852	3.038	-23.324	0.66531	0.55597	0.43188	-0.24823	24.2	13111	100
2025-5-25 10:12:20.633	WT901BLE68(801231B9234C)	-2.303	0.603	1.060	-37.415	-299.377	-193.420	41.53	77.73	-43.98	26.852	3.038	-23.324	0.66531	0.55597	0.43188	-0.24823	24.2	13111	100
2025-5-25 10:12:20.677	WT901BLE68(801231B9234C)	-1.293	0.857	0.865	15.137	-219.604	-197.571	16.02	75.08	-69.88	26.852	3.038	-23.324	0.66531	0.55597	0.43188	-0.24823	24.2	13111	100
2025-5-25 10:12:20.677	WT901BLE68(801231B9234C)	-1.418	1.261	0.701	-4.211	20.996	-164.917	3.33	74.23	-83.22	26.852	3.038	-23.324	0.66531	0.55597	0.43188	-0.24823	24.2	13111	100
2025-5-25 10:12:20.723	WT901BLE68(801231B9234C)	-1.330	0.644	0.630	14.893	215.210	-76.355	-7.21	77.12	-93.65	26.852	3.038	-23.324	0.66531	0.55597	0.43188	-0.24823	24.2	13111	100
2025-5-25 10:12:20.723	WT901BLE68(801231B9234C)	-0.887	0.705	0.296	36.316	263.428	-102.051	-24.92	81.41	-111.56	26.852	3.038	-23.324	0.66531	0.55597	0.43188	-0.24823	24.2	13111	100
2025-5-25 10:12:20.769	WT901BLE68(801231B9234C)	-0.574	0.700	0.211	82.397	254.517	-62.195	-55.77	84.56	-143.73	26.852	3.038	-23.324	0.66531	0.55597	0.43188	-0.24823	24.2	13111	100
2025-5-25 10:12:20.769	WT901BLE68(801231B9234C)	-0.441	0.597	0.200	93.506	234.863	-49.744	-102.70	84.83	167.62	26.852	3.038	-23.324	0.66531	0.55597	0.43188	-0.24823	24.2	13111	100
2025-5-25 10:12:20.792	WT901BLE68(801231B9234C)	-0.253	0.541	0.187	99.792	161.133	-43.640	-127.29	82.73	141.38	26.852	3.038	-23.324	0.66531	0.55597	0.43188	-0.24823	24.2	13111	100
2025-5-25 10:12:20.792	WT901BLE68(801231B9234C)	0.002	0.640	0.199	100.952	57.922	-35.034	-133.35	81.29	133.73	26.852	3.038	-23.324	0.66531	0.55597	0.43188	-0.24823	24.2	13111	100
2025-5-25 10:12:20.835	WT901BLE68(801231B9234C)	0.276	0.770	0.230	83.862	-46.021	-37.842	-129.33	81.32	136.57	26.852	3.038	-23.324	0.42221	0.51126	0.53055	-0.52798	24.2	13111	100
2025-5-25 10:12:20.836	WT901BLE68(801231B9234C)	0.449	0.694	0.204	67.688	-100.769	-45.776	-117.60	82.04	147.72	26.852	3.038	-23.324	0.42221	0.51126	0.53055	-0.52798	24.2	13111	100
2025-5-25 10:12:20.880	WT901BLE68(801231B9234C)	0.457	0.750	0.093	45.227	-115.173	-35.034	-102.00	82.60	163.11	26.852	3.038	-23.324	0.42221	0.51126	0.53055	-0.52798	24.2	13111	100
2025-5-25 10:12:20.880	WT901BLE68(801231B9234C)	0.420	0.877	-0.117	4.211	-97.656	21.851	-87.11	83.40	178.35	26.852	3.038	-23.324	0.42221	0.51126	0.53055	-0.52798	24.2	13111	100
2025-5-25 10:12:20.924	WT901BLE68(801231B9234C)	0.212	0.757	-0.193	-52.734	-53.162	90.454	-73.81	85.37	-167.03	26.852	3.038	-23.324	0.42221	0.51126	0.53055	-0.52798	24.2	13111	100
2025-5-25 10:12:20.924	WT901BLE68(801231B9234C)	-0.376	0.718	0.032	-99.121	-16.541	153.748	-42.42	88.27	-133.49	26.852	3.038	-23.324	0.42221	0.51126	0.53055	-0.52798	24.2	13111	100
2025-5-25 10:12:20.972	WT901BLE68(801231B9234C)	-1.542	0.777	0.097	-149.353	22.644	196.716	65.41	87.34	-22.57	26.852	3.038	-23.324	0.42221	0.51126	0.53055	-0.52798	24.2	13111	100
2025-5-25 10:12:20.972	WT901BLE68(801231B9234C)	-2.748	1.042	0.161	-204.895	54.565	218.018	84.76	82.69	0.91	26.852	3.038	-23.324	0.42221	0.51126	0.53055	-0.52798	24.2	13111	100
2025-5-25 10:12:20.995	WT901BLE68(801231B9234C)	-3.201	0.433	0.723	-226.257	61.707	307.678	88.93	76.50	10.16	26.852	3.038	-23.324	0.42221	0.51126	0.53055	-0.52798	24.2	13111	100
2025-5-25 10:12:20.996	WT901BLE68(801231B9234C)	-2.902	0.800	0.723	-144.470	41.931	269.592	88.16	70.30	13.34	24.304	4.704	-26.950	0.42221	0.51126	0.53055	-0.52798	24.2	13111	100
2025-5-25 10:12:21.40	WT901BLE68(801231B9234C)	-2.489	0.522	0.818	-110.718	124.207	187.988	89.92	65.89	18.26	24.304	4.704	-26.950	0.42221	0.51126	0.53055	-0.52798	24.2	13111	100
2025-5-25 10:12:21.40	WT901BLE68(801231B9234C)	-2.050	0.025	0.697	-71.045	153.320	144.592	93.55	62.56	24.47	24.304	4.704	-26.950	0.42221	0.51126	0.53055	-0.52798	24.2	13111	100
2025-5-25 10:12:21.83	WT901BLE68(801231B9234C)	-1.594	-0.256	0.510	-50.659	123.718	105.713	96.44	60.03	29.37	24.304	4.704	-26.950	0.42221	0.51126	0.53055	-0.52798	24.2	13111	100
2025-5-25 10:12:21.83	WT901BLE68(801231B9234C)	-1.311	-0.342	0.345	-44.189	72.327	84.045	97.71	58.21	32.07	24.304	4.704	-26.950	0.42221	0.51126	0.53055	-0.52798	24.2	13111	100
2025-5-25 10:12:21.128	WT901BLE68(801231B9234C)	-0.980	-0.416	0.227	-49.744	19.470	66.467	97.31	56.97	32.81	24.304	4.704	-26.950	0.42221	0.51126	0.53055	-0.52798	24.2	13111	100
2025-5-25 10:12:21.128	WT901BLE68(801231B9234C)	-0.621	-0.504	0.138	-44.739	-17.700	61.951	95.77	56.11	32.01	24.304	4.704	-26.950	0.42221	0.51126	0.53055	-0.52798	24.2	13111	100
2025-5-25 10:12:21.173	WT901BLE68(801231B9234C)	-0.311	-0.595	0.085	-38.696	-27.100	67.871	93.88	55.28	30.50	24.304	4.704	-26.950	0.42221	0.51126	0.53055	-0.52798	24.2	13111	100
2025-5-25 10:12:21.173	WT901BLE68(801231B9234C)	-0.097	-0.831	0.119	-28.503	-15.442	56.458	92.59	54.55	29.27	24.304	4.704	-26.950	0.42221	0.51126	0.53055	-0.52798	24.2	13111	100
2025-5-25 10:12:21.197	WT901BLE68(801231B9234C)	0.021	-1.083	0.203	-7.141	0.732	15.869	92.33	54.46	28.61	24.304	4.704	-26.950	0.42221	0.51126	0.53055	-0.52798	24.2	13111	100
2025-5-25 10:12:21.197	WT901BLE68(801231B9234C)	0.016	-1.247	0.244	17.090	5.188	-29.419	93.08	55.35	28.41	24.304	4.704	-26.950	0.42221	0.51126	0.53055	-0.52798	24.2	13111	100
2025-5-25 10:12:21.240	WT901BLE68(801231B9234C)	-0.085	-1.253	0.190	42.664	-1.953	-72.632	94.70	57.17	28.49	24.304	4.704	-26.950	0.65485	0.55237	0.47324	-0.20486	24.2	13111	100
2025-5-25 10:12:21.241	WT901BLE68(801231B9234C)	-0.214	-1.152	0.118	79.834	-16.541	-100.769	96.98	59.71	28.56	24.304	4.704	-26.950	0.65485	0.55237	0.47324	-0.20486	24.2	13111	100
2025-5-25 10:12:21.285	WT901BLE68(801231B9234C)	-0.580	-0.821	0.126	125.977	-31.372	-131.592	100.07	62.87	28.59	24.304	4.704	-26.950	0.65485	0.55237	0.47324	-0.20486	24.2	13111	100
2025-5-25 10:12:21.285	WT901BLE68(801231B9234C)	-1.465	-0.549	0.081	148.560	-44.617	-164.917	103.90	66.71	28.80	24.304	4.704	-26.950	0.65485	0.55237	0.47324	-0.20486	24.2	13111	100
2025-5-25 10:12:21.330	WT901BLE68(801231B9234C)	-2.833	-0.477	0.234	150.452	-45.715	-207.947	109.05	71.25	30.17	24.304	4.704	-26.950	0.65485	0.55237	0.47324	-0.20486	24.2	13111	100
2025-5-25 10:12:21.330	WT901BLE68(801231B9234C)	-3.413	-0.481	0.473	138.916	-92.896	-199.219	115.27	76.10	32.93	24.304	4.704	-26.950	0.65485	0.55237	0.47324	-0.20486	24.2	13111	100
2025-5-25 10:12:21.354	WT901BLE68(801231B9234C)	-4.257	-0.009	0.548	119.995	-236.023	-176.697	107.74	81.46	22.05	24.304	4.704	-26.950	0.65485	0.55237	0.47324	-0.20486	24.2	13111	100
2025-5-25 10:12:21.355	WT901BLE68(801231B9234C)	-3.479	0.541	0.616	23.193	-286.255	-257.629	59.42	86.05	-28.05	24.304	4.704	-26.950	0.65485	0.55237	0.47324	-0.20486	24.2	13111	100
2025-5-25 10:12:21.399	WT901BLE68(801231B9234C)	-1.715	1.001	0.584	33.691	-416.870	-283.630	-10.40	80.59	-98.65	24.304	4.704	-26.950	0.65485	0.55237	0.47324	-0.20486	24.2	13111	100
2025-5-25 10:12:21.399	WT901BLE68(801231B9234C)	-0.797	1.406	0.249	56.824	-273.987	-219.666	-21.01	72.54	-110.60	22.736	4.900	-28.714	0.65485	0.55237	0.47324	-0.20486	24.2	13111	100
2025-5-25 10:12:21.445	WT901BLE68(801231B9234C)	-0.635	1.119	0.104	21.606	-2.075	-165.283	-27.33	69.43	-117.81	22.736	4.900	-28.714	0.65485	0.55237	0.47324	-0.20486	24.2	13111	100
2025-5-25 10:12:21.445	WT901BLE68(801231B9234C)	-0.676	0.519	0.061	25.146	181.091	-108.337	-34.97	70.63	-126.32	22.736	4.900	-28.714	0.65485	0.55237	0.47324	-0.20486	24.2	13111	100
2025-5-25 10:12:21.488	WT901BLE68(801231B9234C)	-0.445	0.709	0.125	81.787	263.550	-62.500	-45.98	73.77	-139.08	22.736	4.900	-28.714	0.65485	0.55237	0.47324	-0.20486	24.2	13111	100
2025-5-25 10:12:21.488	WT901BLE68(801231B9234C)	-0.292	0.602	0.177	111.389	252.869	-29.236	-60.19	76.71	-155.58	22.736	4.900	-28.714	0.65485	0.55237	0.47324	-0.20486	24.2	13111	100
2025-5-25 10:12:21.533	WT901BLE68(801231B9234C)	-0.217	0.582	0.161	118.530	209.045	-31.433	-76.83	78.31	-174.63	22.736	4.900	-28.714	0.65485	0.55237	0.47324	-0.20486	24.2	13111	100
2025-5-25 10:12:21.533	WT901BLE68(801231B9234C)	0.018	0.715	0.152	103.149	119.080	-26.306	-89.60	78.61	170.54	22.736	4.900	-28.714	0.65485	0.55237	0.47324	-0.20486	24.2	13111	100
2025-5-25 10:12:21.557	WT901BLE68(801231B9234C)	0.314	0.799	0.072	77.820	15.991	-15.503	-93.37	78.77	165.43	22.736	4.900	-28.714	0.65485	0.55237	0.47324	-0.20486	24.2	13111	100
2025-5-25 10:12:21.557	WT901BLE68(801231B9234C)	0.519	0.682	0.002	64.575	-29.358	-16.113	-90.87	79.09	167.26	22.736	4.900	-28.714	0.65485	0.55237	0.47324	-0.20486	24.2	13111	100
2025-5-25 10:12:21.602	WT901BLE68(801231B9234C)	0.406	0.679	-0.041	29.480	-48.767	-0.305	-86.89	79.54	171.08	22.736	4.900	-28.714	0.65485	0.55237	0.47324	-0.20486	24.2	13111	100
2025-5-25 10:12:21.602	WT901BLE68(801231B9234C)	0.131	0.854	-0.150	-20.691	-16.235	49.133	-84.84	80.78	173.78	22.736	4.900	-28.714	0.65485	0.55237	0.47324	-0.20486	24.2	13111	100
2025-5-25 10:12:21.645	WT901BLE68(801231B9234C)	-0.268	0.814	-0.170	-83.862	18.555	119.934	-88.65	83.53	171.77	22.736	4.900	-28.714	0.44183	0.51910	0.48431	-0.54828	24.2	13111	100
2025-5-25 10:12:21.645	WT901BLE68(801231B9234C)	-1.022	0.805	-0.061	-139.343	7.202	180.054	-102.50	87.45	160.74	22.736	4.900	-28.714	0.44183	0.51910	0.48431	-0.54828	24.2	13111	100
2025-5-25 10:12:21.690	WT901BLE68(801231B9234C)	-2.430	0.841	-0.041	-194.458	-0.183	210.815	118.82	88.46	25.99	22.736	4.900	-28.714	0.44183	0.51910	0.48431	-0.54828	24.2	13111	100
2025-5-25 10:12:21.690	WT901BLE68(801231B9234C)	-2.697	1.345	0.017	-231.628	48.584	282.715	100.32	83.05	12.32	22.736	4.900	-28.714	0.44183	0.51910	0.48431	-0.54828	24.2	13111	100
2025-5-25 10:12:21.735	WT901BLE68(801231B9234C)	-2.919	0.625	0.489	-185.181	68.604	320.801	97.17	76.03	13.63	22.736	4.900	-28.714	0.44183	0.51910	0.48431	-0.54828	24.2	13111	100
2025-5-25 10:12:21.735	WT901BLE68(801231B9234C)	-2.830	0.698	0.507	-168.823	196.838	203.186	99.96	70.46	20.51	22.736	4.900	-28.714	0.44183	0.51910	0.48431	-0.54828	24.2	13111	100
2025-5-25 10:12:21.759	WT901BLE68(801231B9234C)	-2.424	0.182	0.480	-153.870	239.685	140.137	105.93	66.21	30.74	22.736	4.900	-28.714	0.44183	0.51910	0.48431	-0.54828	24.2	13111	100
2025-5-25 10:12:21.759	WT901BLE68(801231B9234C)	-2.046	-0.228	0.321	-122.131	185.608	126.709	109.19	62.54	37.51	22.736	4.900	-28.714	0.44183	0.51910	0.48431	-0.54828	24.2	13111	100
2025-5-25 10:12:21.804	WT901BLE68(801231B9234C)	-1.720	-0.453	0.181	-100.037	137.451	107.605	110.43	59.51	41.57	22.736	4.900	-28.714	0.44183	0.51910	0.48431	-0.54828	24.2	13111	100
2025-5-25 10:12:21.805	WT901BLE68(801231B9234C)	-1.366	-0.460	0.151	-85.083	75.195	79.834	110.34	57.44	43.60	22.736	4.900	-28.714	0.44183	0.51910	0.48431	-0.54828	24.2	13111	100
2025-5-25 10:12:21.848	WT901BLE68(801231B9234C)	-0.944	-0.495	0.164	-71.777	19.470	53.772	109.13	56.38	43.86	35.084	-0.294	-16.268	0.44183	0.51910	0.48431	-0.54828	24.2	13111	100
2025-5-25 10:12:21.848	WT901BLE68(801231B9234C)	-0.527	-0.529	0.143	-61.218	-9.705	36.560	107.47	56.01	43.08	35.084	-0.294	-16.268	0.44183	0.51910	0.48431	-0.54828	24.2	13111	100
2025-5-25 10:12:21.892	WT901BLE68(801231B9234C)	-0.165	-0.558	0.069	-51.514	-17.944	26.855	105.82	56.01	41.90	35.084	-0.294	-16.268	0.44183	0.51910	0.48431	-0.54828	24.2	13111	100
2025-5-25 10:12:21.893	WT901BLE68(801231B9234C)	0.111	-0.669	-0.015	-44.250	-14.160	12.146	104.60	56.22	40.82	35.084	-0.294	-16.268	0.44183	0.51910	0.48431	-0.54828	24.2	13111	100
2025-5-25 10:12:21.937	WT901BLE68(801231B9234C)	0.228	-0.853	-0.001	-38.147	7.996	-18.555	104.36	56.82	40.57	35.084	-0.294	-16.268	0.44183	0.51910	0.48431	-0.54828	24.2	13111	100
2025-5-25 10:12:21.938	WT901BLE68(801231B9234C)	0.166	-1.045	0.064	-24.109	21.240	-63.599	105.48	58.11	41.51	35.084	-0.294	-16.268	0.44183	0.51910	0.48431	-0.54828	24.2	13111	100
2025-5-25 10:12:21.962	WT901BLE68(801231B9234C)	-0.034	-1.160	0.120	11.841	29.419	-101.379	108.30	60.14	43.68	35.084	-0.294	-16.268	0.44183	0.51910	0.48431	-0.54828	24.2	13111	100
2025-5-25 10:12:21.962	WT901BLE68(801231B9234C)	-0.146	-1.000	0.184	60.669	19.226	-113.647	112.98	62.46	46.81	35.084	-0.294	-16.268	0.44183	0.51910	0.48431	-0.54828	24.2	13111	100
2025-5-25 10:12:22.7	WT901BLE68(801231B9234C)	-0.385	-0.743	0.171	104.492	-11.230	-122.559	118.68	65.01	50.00	35.084	-0.294	-16.268	0.44183	0.51910	0.48431	-0.54828	24.2	13111	100
2025-5-25 10:12:22.8	WT901BLE68(801231B9234C)	-1.244	-0.631	0.140	133.911	-23.865	-134.094	125.62	67.79	53.71	35.084	-0.294	-16.268	0.44183	0.51910	0.48431	-0.54828	24.2	13111	100
2025-5-25 10:12:22.50	WT901BLE68(801231B9234C)	-2.989	-0.707	0.217	157.288	-22.644	-155.212	134.67	70.57	59.09	35.084	-0.294	-16.268	0.51038	0.55014	0.56842	-0.33710	24.2	13111	100
2025-5-25 10:12:22.50	WT901BLE68(801231B9234C)	-3.421	-0.773	0.319	153.442	-57.434	-176.514	147.22	73.37	67.98	35.084	-0.294	-16.268	0.51038	0.55014	0.56842	-0.33710	24.2	13111	100
2025-5-25 10:12:22.97	WT901BLE68(801231B9234C)	-3.785	-0.170	0.103	179.626	-214.783	-156.128	157.25	78.04	73.94	35.084	-0.294	-16.268	0.51038	0.55014	0.56842	-0.33710	24.2	13111	100
2025-5-25 10:12:22.97	WT901BLE68(801231B9234C)	-3.478	0.112	0.212	107.178	-203.064	-217.773	178.27	83.07	91.96	35.084	-0.294	-16.268	0.51038	0.55014	0.56842	-0.33710	24.2	13111	100
2025-5-25 10:12:22.140	WT901BLE68(801231B9234C)	-2.081	0.552	0.215	118.042	-274.292	-219.971	-117.11	85.30	154.68	35.084	-0.294	-16.268	0.51038	0.55014	0.56842	-0.33710	24.2	13111	100
2025-5-25 10:12:22.140	WT901BLE68(801231B9234C)	-1.250	0.877	0.104	124.268	-163.208	-193.604	-74.93	81.55	-165.12	35.084	-0.294	-16.268	0.51038	0.55014	0.56842	-0.33710	24.2	13111	100
2025-5-25 10:12:22.164	WT901BLE68(801231B9234C)	-0.948	0.909	0.105	99.365	15.015	-169.800	-73.31	77.94	-165.29	35.084	-0.294	-16.268	0.51038	0.55014	0.56842	-0.33710	24.2	13111	100
2025-5-25 10:12:22.164	WT901BLE68(801231B9234C)	-0.826	0.723	0.057	107.483	144.287	-128.540	-82.19	75.84	-176.11	35.084	-0.294	-16.268	0.51038	0.55014	0.56842	-0.33710	24.2	13111	100
2025-5-25 10:12:22.210	WT901BLE68(801231B9234C)	-0.625	0.575	0.047	118.530	174.011	-89.417	-92.67	74.20	171.17	35.084	-0.294	-16.268	0.51038	0.55014	0.56842	-0.33710	24.2	13111	100
2025-5-25 10:12:22.210	WT901BLE68(801231B9234C)	-0.313	0.532	0.067	116.455	142.883	-56.091	-100.46	72.86	161.13	24.206	13.426	-21.070	0.51038	0.55014	0.56842	-0.33710	24.2	13111	100
2025-5-25 10:12:22.252	WT901BLE68(801231B9234C)	-0.084	0.591	0.041	112.732	94.177	-28.259	-104.91	72.00	154.68	24.206	13.426	-21.070	0.51038	0.55014	0.56842	-0.33710	24.2	13111	100
2025-5-25 10:12:22.253	WT901BLE68(801231B9234C)	0.171	0.719	-0.020	96.436	29.358	-20.691	-106.29	71.65	151.78	24.206	13.426	-21.070	0.51038	0.55014	0.56842	-0.33710	24.2	13111	100
2025-5-25 10:12:22.297	WT901BLE68(801231B9234C)	0.453	0.822	-0.064	69.946	-31.311	-17.639	-104.79	71.77	152.45	24.206	13.426	-21.070	0.51038	0.55014	0.56842	-0.33710	24.2	13111	100
2025-5-25 10:12:22.297	WT901BLE68(801231B9234C)	0.519	0.784	-0.017	42.175	-57.434	-17.090	-101.91	72.14	155.07	24.206	13.426	-21.070	0.51038	0.55014	0.56842	-0.33710	24.2	13111	100
2025-5-25 10:12:22.322	WT901BLE68(801231B9234C)	0.350	0.754	-0.077	4.028	-49.438	6.714	-99.61	72.82	157.89	24.206	13.426	-21.070	0.51038	0.55014	0.56842	-0.33710	24.2	13111	100
2025-5-25 10:12:22.322	WT901BLE68(801231B9234C)	0.072	0.922	-0.179	-46.692	-15.808	59.204	-100.59	74.31	158.16	24.206	13.426	-21.070	0.51038	0.55014	0.56842	-0.33710	24.2	13111	100
2025-5-25 10:12:22.365	WT901BLE68(801231B9234C)	-0.446	1.002	-0.168	-105.530	2.869	138.550	-106.61	77.06	154.32	24.206	13.426	-21.070	0.51038	0.55014	0.56842	-0.33710	24.2	13111	100
2025-5-25 10:12:22.365	WT901BLE68(801231B9234C)	-1.569	0.875	-0.026	-184.631	-24.536	203.552	-119.33	81.14	145.12	24.206	13.426	-21.070	0.51038	0.55014	0.56842	-0.33710	24.2	13111	100
2025-5-25 10:12:22.453	WT901BLE68(801231B9234C)	-2.646	0.971	-0.062	-231.934	-40.161	242.249	-150.64	85.29	118.49	24.206	13.426	-21.070	0.51038	0.55014	0.56842	-0.33710	24.2	13111	100
2025-5-25 10:12:22.454	WT901BLE68(801231B9234C)	-2.662	0.764	0.195	-240.234	-17.639	326.660	135.40	84.57	49.66	24.206	13.426	-21.070	0.51038	0.55014	0.56842	-0.33710	24.2	13111	100
2025-5-25 10:12:22.481	WT901BLE68(801231B9234C)	-3.086	0.510	0.591	-178.772	33.081	301.697	108.23	78.60	26.88	24.206	13.426	-21.070	0.51038	0.55014	0.56842	-0.33710	24.2	13111	100
2025-5-25 10:12:22.481	WT901BLE68(801231B9234C)	-2.811	0.607	0.612	-165.222	203.064	184.509	109.17	73.28	31.82	24.206	13.426	-21.070	0.57874	0.53961	0.50873	-0.33905	24.2	13111	100
2025-5-25 10:12:22.501	WT901BLE68(801231B9234C)	-2.164	-0.003	0.436	-122.437	211.975	154.541	113.91	68.59	40.35	24.206	13.426	-21.070	0.57874	0.53961	0.50873	-0.33905	24.2	13111	100
2025-5-25 10:12:22.501	WT901BLE68(801231B9234C)	-1.776	-0.391	0.288	-96.497	172.119	131.531	116.20	64.50	45.54	24.206	13.426	-21.070	0.57874	0.53961	0.50873	-0.33905	24.2	13111	100
2025-5-25 10:12:22.533	WT901BLE68(801231B9234C)	-1.503	-0.539	0.181	-84.106	106.750	99.854	116.69	61.53	48.43	24.206	13.426	-21.070	0.57874	0.53961	0.50873	-0.33905	24.2	13111	100
2025-5-25 10:12:22.533	WT901BLE68(801231B9234C)	-1.133	-0.564	0.126	-75.439	25.391	78.552	115.15	59.82	48.78	24.206	13.426	-21.070	0.57874	0.53961	0.50873	-0.33905	24.2	13111	100
2025-5-25 10:12:22.570	WT901BLE68(801231B9234C)	-0.738	-0.594	0.132	-68.176	-26.978	69.397	112.24	58.94	47.24	24.206	13.426	-21.070	0.57874	0.53961	0.50873	-0.33905	24.2	13111	100
2025-5-25 10:12:22.570	WT901BLE68(801231B9234C)	-0.422	-0.715	0.137	-56.702	-49.744	56.458	108.89	58.52	44.76	24.206	13.426	-21.070	0.57874	0.53961	0.50873	-0.33905	24.2	13111	100
2025-5-25 10:12:22.615	WT901BLE68(801231B9234C)	-0.172	-0.832	0.147	-42.114	-54.504	35.400	105.99	58.51	42.08	24.206	13.426	-21.070	0.57874	0.53961	0.50873	-0.33905	24.2	13111	100
2025-5-25 10:12:22.615	WT901BLE68(801231B9234C)	-0.014	-0.952	0.183	-25.146	-47.913	11.169	104.14	58.86	39.76	24.206	13.426	-21.070	0.57874	0.53961	0.50873	-0.33905	24.2	13111	100
2025-5-25 10:12:22.657	WT901BLE68(801231B9234C)	0.065	-1.044	0.204	-7.568	-42.725	-21.484	103.36	59.74	38.04	24.206	13.426	-21.070	0.57874	0.53961	0.50873	-0.33905	24.2	13111	100
2025-5-25 10:12:22.658	WT901BLE68(801231B9234C)	0.101	-1.066	0.131	15.503	-40.100	-54.443	103.56	61.24	36.91	38.318	4.116	-11.760	0.57874	0.53961	0.50873	-0.33905	24.2	13111	100
2025-5-25 10:12:22.702	WT901BLE68(801231B9234C)	0.010	-0.930	0.035	44.434	-31.677	-79.956	104.96	63.31	36.55	38.318	4.116	-11.760	0.57874	0.53961	0.50873	-0.33905	24.2	13111	100
2025-5-25 10:12:22.703	WT901BLE68(801231B9234C)	-0.234	-0.745	0.025	82.153	-18.188	-100.342	108.11	65.75	37.40	38.318	4.116	-11.760	0.57874	0.53961	0.50873	-0.33905	24.2	13111	100
2025-5-25 10:12:22.727	WT901BLE68(801231B9234C)	-0.685	-0.543	0.041	112.244	-14.709	-121.704	113.26	68.49	39.71	38.318	4.116	-11.760	0.57874	0.53961	0.50873	-0.33905	24.2	13111	100
2025-5-25 10:12:22.727	WT901BLE68(801231B9234C)	-1.882	-0.495	0.048	129.028	-13.428	-137.329	120.37	71.43	43.66	38.318	4.116	-11.760	0.57874	0.53961	0.50873	-0.33905	24.2	13111	100
2025-5-25 10:12:22.792	WT901BLE68(801231B9234C)	-3.163	-0.729	0.277	124.817	2.380	-161.316	130.31	74.33	50.49	38.318	4.116	-11.760	0.57874	0.53961	0.50873	-0.33905	24.2	13111	100
2025-5-25 10:12:22.793	WT901BLE68(801231B9234C)	-3.966	-0.610	0.416	119.690	-97.351	-151.001	141.60	77.34	58.83	38.318	4.116	-11.760	0.57874	0.53961	0.50873	-0.33905	24.2	13111	100
2025-5-25 10:12:22.818	WT901BLE68(801231B9234C)	-3.989	0.178	0.068	100.891	-225.647	-148.193	145.45	82.38	59.97	38.318	4.116	-11.760	0.57874	0.53961	0.50873	-0.33905	24.2	13111	100
2025-5-25 10:12:22.818	WT901BLE68(801231B9234C)	-2.389	0.658	0.287	39.551	-296.021	-223.267	165.95	89.07	79.32	38.318	4.116	-11.760	0.57874	0.53961	0.50873	-0.33905	24.2	13111	100
2025-5-25 10:12:22.860	WT901BLE68(801231B9234C)	-1.275	1.105	0.274	88.318	-273.315	-218.262	-41.42	84.20	-129.18	38.318	4.116	-11.760	0.57874	0.53961	0.50873	-0.33905	24.2	13111	100
2025-5-25 10:12:22.860	WT901BLE68(801231B9234C)	-0.989	1.066	0.193	61.768	-30.518	-186.951	-47.33	79.76	-136.37	38.318	4.116	-11.760	0.49774	0.42941	0.50143	-0.56241	24.2	13111	100
2025-5-25 10:12:22.905	WT901BLE68(801231B9234C)	-0.872	0.691	0.086	75.012	146.484	-141.663	-62.01	78.37	-152.28	38.318	4.116	-11.760	0.49774	0.42941	0.50143	-0.56241	24.2	13111	100
2025-5-25 10:12:22.905	WT901BLE68(801231B9234C)	-0.612	0.708	0.057	113.403	205.017	-96.191	-79.68	77.77	-171.97	38.318	4.116	-11.760	0.49774	0.42941	0.50143	-0.56241	24.2	13111	100
2025-5-25 10:12:22.928	WT901BLE68(801231B9234C)	-0.386	0.683	0.073	129.517	203.918	-55.908	-95.33	76.90	169.87	38.318	4.116	-11.760	0.49774	0.42941	0.50143	-0.56241	24.2	13111	100
2025-5-25 10:12:22.928	WT901BLE68(801231B9234C)	-0.188	0.612	0.080	128.479	160.828	-32.288	-106.63	75.78	156.14	38.318	4.116	-11.760	0.49774	0.42941	0.50143	-0.56241	24.2	13111	100
2025-5-25 10:12:22.972	WT901BLE68(801231B9234C)	0.059	0.684	0.050	120.667	89.111	-13.123	-112.78	75.03	147.81	38.318	4.116	-11.760	0.49774	0.42941	0.50143	-0.56241	24.2	13111	100
2025-5-25 10:12:22.973	WT901BLE68(801231B9234C)	0.325	0.778	0.019	103.516	7.751	-5.432	-113.92	75.01	145.01	38.318	4.116	-11.760	0.49774	0.42941	0.50143	-0.56241	24.2	13111	100
2025-5-25 10:12:23.19	WT901BLE68(801231B9234C)	0.496	0.760	0.052	83.069	-39.063	-9.583	-111.57	75.51	146.29	38.318	4.116	-11.760	0.49774	0.42941	0.50143	-0.56241	24.2	13111	100
2025-5-25 10:12:23.19	WT901BLE68(801231B9234C)	0.453	0.605	0.033	49.255	-52.429	-0.610	-108.30	76.23	149.14	38.318	4.116	-11.760	0.49774	0.42941	0.50143	-0.56241	24.2	13111	100
2025-5-25 10:12:23.62	WT901BLE68(801231B9234C)	0.326	0.732	-0.063	7.263	-35.461	44.556	-107.39	77.54	150.33	38.318	4.116	-11.760	0.49774	0.42941	0.50143	-0.56241	24.2	13111	100
2025-5-25 10:12:23.63	WT901BLE68(801231B9234C)	0.117	0.798	-0.172	-49.194	-11.780	104.492	-111.96	79.88	146.95	29.106	8.918	-24.402	0.49774	0.42941	0.50143	-0.56241	24.2	13111	100
2025-5-25 10:12:23.87	WT901BLE68(801231B9234C)	-0.334	0.875	-0.058	-91.248	-10.803	157.349	-125.45	82.92	135.42	29.106	8.918	-24.402	0.49774	0.42941	0.50143	-0.56241	24.2	13111	100
2025-5-25 10:12:23.87	WT901BLE68(801231B9234C)	-1.686	0.850	0.125	-157.715	-20.447	204.895	-163.05	85.73	100.81	29.106	8.918	-24.402	0.49774	0.42941	0.50143	-0.56241	24.2	13111	100
2025-5-25 10:12:23.130	WT901BLE68(801231B9234C)	-2.908	0.986	0.113	-213.135	-3.723	215.332	139.84	84.62	47.93	29.106	8.918	-24.402	0.49774	0.42941	0.50143	-0.56241	24.2	13111	100
2025-5-25 10:12:23.130	WT901BLE68(801231B9234C)	-2.809	0.813	0.367	-225.891	-1.465	321.228	112.65	79.38	25.61	29.106	8.918	-24.402	0.49774	0.42941	0.50143	-0.56241	24.2	13111	100
2025-5-25 10:12:23.174	WT901BLE68(801231B9234C)	-3.042	0.779	0.615	-155.090	22.766	291.748	100.70	73.00	17.53	29.106	8.918	-24.402	0.49774	0.42941	0.50143	-0.56241	24.2	13111	100
2025-5-25 10:12:23.175	WT901BLE68(801231B9234C)	-2.665	0.825	0.696	-161.072	188.660	178.711	101.72	68.17	22.54	29.106	8.918	-24.402	0.49774	0.42941	0.50143	-0.56241	24.2	13111	100
2025-5-25 10:12:23.222	WT901BLE68(801231B9234C)	-2.221	0.156	0.514	-120.422	210.327	143.677	105.94	64.12	30.61	29.106	8.918	-24.402	0.49774	0.42941	0.50143	-0.56241	24.2	13111	100
2025-5-25 10:12:23.222	WT901BLE68(801231B9234C)	-1.797	-0.197	0.390	-102.295	175.659	115.417	108.73	60.66	36.52	29.106	8.918	-24.402	0.49774	0.42941	0.50143	-0.56241	24.2	13111	100
2025-5-25 10:12:23.265	WT901BLE68(801231B9234C)	-1.426	-0.320	0.282	-86.121	102.051	88.257	109.56	58.15	39.86	29.106	8.918	-24.402	0.49774	0.42941	0.50143	-0.56241	24.2	13111	100
2025-5-25 10:12:23.265	WT901BLE68(801231B9234C)	-1.063	-0.361	0.224	-78.430	27.466	66.895	108.40	56.70	40.55	29.106	8.918	-24.402	0.61371	0.57877	0.50534	-0.18146	24.2	13111	100
2025-5-25 10:12:23.289	WT901BLE68(801231B9234C)	-0.700	-0.475	0.195	-74.524	-13.489	56.335	106.16	55.93	39.68	29.106	8.918	-24.402	0.61371	0.57877	0.50534	-0.18146	24.2	13111	100
2025-5-25 10:12:23.290	WT901BLE68(801231B9234C)	-0.416	-0.593	0.177	-69.824	-29.846	57.739	103.46	55.39	37.96	29.106	8.918	-24.402	0.61371	0.57877	0.50534	-0.18146	24.2	13111	100
2025-5-25 10:12:23.332	WT901BLE68(801231B9234C)	-0.209	-0.804	0.201	-60.974	-28.992	42.847	101.10	55.03	36.18	29.106	8.918	-24.402	0.61371	0.57877	0.50534	-0.18146	24.2	13111	100
2025-5-25 10:12:23.333	WT901BLE68(801231B9234C)	-0.070	-1.004	0.275	-44.006	-28.442	9.705	99.60	55.20	34.69	29.106	8.918	-24.402	0.61371	0.57877	0.50534	-0.18146	24.2	13111	100
2025-5-25 10:12:23.377	WT901BLE68(801231B9234C)	0.037	-1.080	0.312	-27.954	-40.649	-22.278	98.55	56.05	33.13	29.106	8.918	-24.402	0.61371	0.57877	0.50534	-0.18146	24.2	13111	100
2025-5-25 10:12:23.377	WT901BLE68(801231B9234C)	0.024	-1.076	0.219	-4.089	-44.678	-65.430	98.07	57.76	31.66	29.106	8.918	-24.402	0.61371	0.57877	0.50534	-0.18146	24.2	13111	100
2025-5-25 10:12:23.424	WT901BLE68(801231B9234C)	-0.127	-0.963	0.119	20.569	-33.875	-92.346	98.51	60.15	30.73	29.106	8.918	-24.402	0.61371	0.57877	0.50534	-0.18146	24.2	13111	100
2025-5-25 10:12:23.424	WT901BLE68(801231B9234C)	-0.428	-0.838	0.119	58.899	-16.602	-112.549	100.50	62.99	30.84	29.106	8.918	-24.402	0.61371	0.57877	0.50534	-0.18146	24.2	13111	100
2025-5-25 10:12:23.468	WT901BLE68(801231B9234C)	-1.167	-0.678	0.099	93.750	-16.602	-140.808	104.11	66.32	31.99	29.106	8.918	-24.402	0.61371	0.57877	0.50534	-0.18146	24.2	13111	100
2025-5-25 10:12:23.468	WT901BLE68(801231B9234C)	-2.813	-0.678	0.199	109.192	-33.081	-168.884	108.89	70.07	33.87	36.946	1.960	-18.032	0.61371	0.57877	0.50534	-0.18146	24.2	13111	100
2025-5-25 10:12:23.492	WT901BLE68(801231B9234C)	-3.374	-0.688	0.556	97.900	-72.388	-174.072	113.98	74.23	36.15	36.946	1.960	-18.032	0.61371	0.57877	0.50534	-0.18146	24.2	13111	100
2025-5-25 10:12:23.492	WT901BLE68(801231B9234C)	-3.773	-0.141	0.561	96.680	-302.490	-158.936	104.00	79.43	23.23	36.946	1.960	-18.032	0.61371	0.57877	0.50534	-0.18146	24.2	13111	100
2025-5-25 10:12:23.535	WT901BLE68(801231B9234C)	-2.721	0.583	0.433	40.771	-325.134	-230.408	61.59	83.18	-21.49	36.946	1.960	-18.032	0.61371	0.57877	0.50534	-0.18146	24.2	13111	100
2025-5-25 10:12:23.535	WT901BLE68(801231B9234C)	-1.429	0.899	0.444	101.746	-308.655	-268.433	7.14	80.56	-77.75	36.946	1.960	-18.032	0.61371	0.57877	0.50534	-0.18146	24.2	13111	100
2025-5-25 10:12:23.580	WT901BLE68(801231B9234C)	-1.288	1.488	0.400	113.525	-57.373	-219.543	-13.30	77.00	-101.05	36.946	1.960	-18.032	0.61371	0.57877	0.50534	-0.18146	24.2	13111	100
2025-5-25 10:12:23.580	WT901BLE68(801231B9234C)	-1.290	1.059	0.352	75.073	160.706	-165.833	-28.21	77.54	-117.84	36.946	1.960	-18.032	0.61371	0.57877	0.50534	-0.18146	24.2	13111	100
2025-5-25 10:12:23.627	WT901BLE68(801231B9234C)	-0.889	0.628	0.240	123.047	208.496	-132.080	-47.63	79.15	-139.42	36.946	1.960	-18.032	0.61371	0.57877	0.50534	-0.18146	24.2	13111	100
2025-5-25 10:12:23.627	WT901BLE68(801231B9234C)	-0.554	0.771	0.135	154.297	173.706	-87.463	-65.91	79.74	-160.63	36.946	1.960	-18.032	0.61371	0.57877	0.50534	-0.18146	24.2	13111	100
2025-5-25 10:12:23.670	WT901BLE68(801231B9234C)	-0.334	0.718	0.128	149.536	148.254	-61.523	-80.40	79.67	-178.02	36.946	1.960	-18.032	0.61371	0.57877	0.50534	-0.18146	24.2	13111	100
2025-5-25 10:12:23.670	WT901BLE68(801231B9234C)	-0.108	0.662	0.089	138.184	96.497	-42.542	-90.15	79.29	169.66	36.946	1.960	-18.032	0.39136	0.50061	0.50101	-0.58746	24.2	13111	100
2025-5-25 10:12:23.694	WT901BLE68(801231B9234C)	0.175	0.720	0.020	122.559	30.640	-29.785	-93.29	79.04	164.42	36.946	1.960	-18.032	0.39136	0.50061	0.50101	-0.58746	24.2	13111	100
2025-5-25 10:12:23.694	WT901BLE68(801231B9234C)	0.520	0.738	-0.073	112.000	-7.080	-29.602	-92.00	78.93	164.00	36.946	1.960	-18.032	0.39136	0.50061	0.50101	-0.58746	24.2	13111	100
2025-5-25 10:12:23.737	WT901BLE68(801231B9234C)	0.594	0.709	-0.102	73.120	-25.269	-19.531	-89.17	79.01	165.78	36.946	1.960	-18.032	0.39136	0.50061	0.50101	-0.58746	24.2	13111	100
2025-5-25 10:12:23.738	WT901BLE68(801231B9234C)	0.399	0.605	-0.085	26.855	-7.874	2.930	-88.00	79.54	166.77	36.946	1.960	-18.032	0.39136	0.50061	0.50101	-0.58746	24.2	13111	100
2025-5-25 10:12:23.783	WT901BLE68(801231B9234C)	0.171	0.627	-0.145	-30.701	25.452	52.979	-91.71	81.00	163.83	36.946	1.960	-18.032	0.39136	0.50061	0.50101	-0.58746	24.2	13111	100
