time	DeviceName	AccX(g)	AccY(g)	AccZ(g)	AsX(°/s)	AsY(°/s)	AsZ(°/s)	AngleX(°)	AngleY(°)	AngleZ(°)	HX(uT)	HY(uT)	HZ(uT)	Q0()	Q1()	Q2()	Q3()	Temperature(°C)	Version()	Battery level(%)
2025-5-25 10:32:25.611	WT901BLE68(801231B9234C)	0.346	1.609	0.240	131.348	-116.577	357.666	31.23	39.05	-16.73	31.458	21.266	-25.970	-0.79810	-0.13669	-0.44974	0.37680	24.4	13111	100
2025-5-25 10:32:25.611	WT901BLE68(801231B9234C)	0.491	2.122	0.093	155.151	-59.875	363.647	38.24	33.30	-9.95	22.540	-0.882	-36.162	-0.79810	-0.13669	-0.44974	0.37680	24.4	13111	100
2025-5-25 10:32:25.668	WT901BLE68(801231B9234C)	0.386	2.604	-0.115	196.960	69.092	372.864	45.75	28.35	-2.80	22.540	-0.882	-36.162	-0.79810	-0.13669	-0.44974	0.37680	24.4	13111	100
2025-5-25 10:32:25.669	WT901BLE68(801231B9234C)	0.032	2.674	-0.327	218.018	220.459	377.441	53.99	24.47	5.80	22.540	-0.882	-36.162	-0.79810	-0.13669	-0.44974	0.37680	24.4	13111	100
2025-5-25 10:32:25.698	WT901BLE68(801231B9234C)	-0.426	2.716	-0.321	223.938	303.955	394.104	62.44	20.48	15.64	22.540	-0.882	-36.162	-0.79810	-0.13669	-0.44974	0.37680	24.4	13111	100
2025-5-25 10:32:25.698	WT901BLE68(801231B9234C)	-0.836	2.623	-0.031	194.763	249.268	380.432	69.51	15.39	24.42	22.540	-0.882	-36.162	-0.79810	-0.13669	-0.44974	0.37680	24.4	13111	100
2025-5-25 10:32:25.727	WT901BLE68(801231B9234C)	-0.643	2.467	0.273	139.771	49.561	315.979	73.92	9.57	29.20	22.540	-0.882	-36.162	-0.79810	-0.13669	-0.44974	0.37680	24.4	13111	100
2025-5-25 10:32:25.727	WT901BLE68(801231B9234C)	-0.241	2.507	0.128	143.677	-115.723	254.089	76.88	3.88	29.20	22.540	-0.882	-36.162	-0.79810	-0.13669	-0.44974	0.37680	24.4	13111	100
2025-5-25 10:32:25.791	WT901BLE68(801231B9234C)	-0.211	2.729	0.036	142.944	-87.830	194.702	79.84	-0.70	27.78	22.540	-0.882	-36.162	-0.79810	-0.13669	-0.44974	0.37680	24.4	13111	100
2025-5-25 10:32:25.791	WT901BLE68(801231B9234C)	-0.590	2.766	0.173	131.775	36.255	152.710	82.63	-3.94	27.90	22.540	-0.882	-36.162	-0.79810	-0.13669	-0.44974	0.37680	24.4	13111	100
2025-5-25 10:32:25.820	WT901BLE68(801231B9234C)	-0.895	2.665	0.319	122.437	136.719	134.033	84.95	-6.37	30.06	22.540	-0.882	-36.162	-0.79810	-0.13669	-0.44974	0.37680	24.4	13111	100
2025-5-25 10:32:25.820	WT901BLE68(801231B9234C)	-1.158	2.334	0.401	113.647	191.650	122.925	86.84	-8.52	33.37	22.540	-0.882	-36.162	-0.65875	-0.68015	-0.15366	-0.28238	24.4	13111	100
2025-5-25 10:32:25.850	WT901BLE68(801231B9234C)	-1.194	1.905	0.614	88.562	213.440	99.609	88.12	-10.31	37.17	22.540	-0.882	-36.162	-0.65875	-0.68015	-0.15366	-0.28238	24.4	13111	100
2025-5-25 10:32:25.850	WT901BLE68(801231B9234C)	-1.180	1.465	0.784	59.326	181.519	76.599	88.72	-11.63	40.40	22.540	-0.882	-36.162	-0.65875	-0.68015	-0.15366	-0.28238	24.4	13111	100
2025-5-25 10:32:25.908	WT901BLE68(801231B9234C)	-1.308	1.073	0.675	41.260	170.227	31.982	89.09	-12.24	43.01	22.540	-0.882	-36.162	-0.65875	-0.68015	-0.15366	-0.28238	24.4	13111	100
2025-5-25 10:32:25.908	WT901BLE68(801231B9234C)	-1.479	0.755	0.483	26.672	160.889	-3.540	89.24	-12.03	45.25	22.540	-0.882	-36.162	-0.65875	-0.68015	-0.15366	-0.28238	24.4	13111	100
2025-5-25 10:32:25.969	WT901BLE68(801231B9234C)	-1.553	0.313	0.377	19.104	150.940	-21.790	89.33	-11.34	47.22	22.540	-0.882	-36.162	-0.65875	-0.68015	-0.15366	-0.28238	24.4	13111	100
2025-5-25 10:32:25.969	WT901BLE68(801231B9234C)	-1.473	-0.146	0.400	20.142	119.324	-9.033	89.63	-10.63	48.74	22.540	-0.882	-36.162	-0.65875	-0.68015	-0.15366	-0.28238	24.4	13111	100
2025-5-25 10:32:25.969	WT901BLE68(801231B9234C)	-1.260	-0.661	0.455	34.790	51.270	-29.480	90.42	-9.89	49.08	22.540	-0.882	-36.162	-0.65875	-0.68015	-0.15366	-0.28238	24.4	13111	100
2025-5-25 10:32:25.969	WT901BLE68(801231B9234C)	-1.242	-0.709	0.487	48.523	7.813	-79.102	91.86	-8.18	48.35	22.540	-0.882	-36.162	-0.65875	-0.68015	-0.15366	-0.28238	24.4	13111	100
2025-5-25 10:32:26.29	WT901BLE68(801231B9234C)	-1.308	-0.876	0.704	46.570	-1.770	-115.112	93.47	-5.65	47.41	22.540	-0.882	-36.162	-0.65875	-0.68015	-0.15366	-0.28238	24.4	13111	100
2025-5-25 10:32:26.29	WT901BLE68(801231B9234C)	-1.473	-0.780	0.719	40.466	-54.626	-185.974	95.08	-1.86	46.01	22.540	-0.882	-36.162	-0.65875	-0.68015	-0.15366	-0.28238	24.4	13111	100
2025-5-25 10:32:26.58	WT901BLE68(801231B9234C)	-1.552	-0.261	0.517	29.297	-97.595	-245.544	96.47	3.49	43.93	9.702	-46.550	-10.682	-0.65875	-0.68015	-0.15366	-0.28238	24.4	13111	100
2025-5-25 10:32:26.58	WT901BLE68(801231B9234C)	-1.525	0.093	0.439	15.991	-146.851	-272.705	97.38	9.67	41.22	9.702	-46.550	-10.682	-0.65875	-0.68015	-0.15366	-0.28238	24.4	13111	100
2025-5-25 10:32:26.89	WT901BLE68(801231B9234C)	-1.670	0.481	0.385	0.366	-203.430	-303.955	97.52	16.58	37.53	9.702	-46.550	-10.682	-0.65875	-0.68015	-0.15366	-0.28238	24.4	13111	100
2025-5-25 10:32:26.89	WT901BLE68(801231B9234C)	-1.959	2.293	0.193	-76.172	-232.727	-315.063	96.16	23.57	32.89	9.702	-46.550	-10.682	-0.65875	-0.68015	-0.15366	-0.28238	24.4	13111	100
2025-5-25 10:32:26.149	WT901BLE68(801231B9234C)	-1.702	1.997	0.272	-75.073	-215.698	-260.315	93.71	29.40	27.98	9.702	-46.550	-10.682	-0.65875	-0.68015	-0.15366	-0.28238	24.4	13111	100
2025-5-25 10:32:26.149	WT901BLE68(801231B9234C)	-2.183	2.066	0.358	-97.595	-211.121	-303.223	89.70	35.68	22.12	9.702	-46.550	-10.682	-0.65875	-0.68015	-0.15366	-0.28238	24.4	13111	100
2025-5-25 10:32:26.180	WT901BLE68(801231B9234C)	-1.889	2.972	0.409	-122.559	-229.492	-322.327	83.80	42.02	15.31	9.702	-46.550	-10.682	-0.65875	-0.68015	-0.15366	-0.28238	24.4	13111	100
2025-5-25 10:32:26.180	WT901BLE68(801231B9234C)	-1.268	3.242	0.085	-125.061	-235.352	-311.401	75.75	47.60	6.48	9.702	-46.550	-10.682	-0.65875	-0.68015	-0.15366	-0.28238	24.4	13111	100
2025-5-25 10:32:26.209	WT901BLE68(801231B9234C)	-0.891	3.146	-0.297	-107.788	-165.894	-273.621	67.10	51.76	-2.31	9.702	-46.550	-10.682	-0.65875	-0.68015	-0.15366	-0.28238	24.4	13111	100
2025-5-25 10:32:26.209	WT901BLE68(801231B9234C)	-0.585	2.890	-0.285	-58.655	-78.735	-243.958	60.32	55.26	-8.94	9.702	-46.550	-10.682	-0.65875	-0.68015	-0.15366	-0.28238	24.4	13111	100
2025-5-25 10:32:26.269	WT901BLE68(801231B9234C)	-0.206	2.509	-0.338	0.610	-69.092	-220.642	55.13	58.26	-14.77	9.702	-46.550	-10.682	-0.73468	-0.45319	-0.37375	0.33920	24.4	13111	100
2025-5-25 10:32:26.269	WT901BLE68(801231B9234C)	0.207	2.133	-0.390	44.922	-93.750	-220.093	49.86	60.59	-21.63	9.702	-46.550	-10.682	-0.73468	-0.45319	-0.37375	0.33920	24.4	13111	100
2025-5-25 10:32:26.297	WT901BLE68(801231B9234C)	0.480	1.758	-0.467	78.369	-100.159	-215.393	44.31	62.30	-29.50	9.702	-46.550	-10.682	-0.73468	-0.45319	-0.37375	0.33920	24.4	13111	100
2025-5-25 10:32:26.298	WT901BLE68(801231B9234C)	0.643	1.336	-0.512	104.370	-88.135	-203.369	39.24	63.64	-37.37	9.702	-46.550	-10.682	-0.73468	-0.45319	-0.37375	0.33920	24.4	13111	100
2025-5-25 10:32:26.329	WT901BLE68(801231B9234C)	0.893	1.043	-0.610	110.657	-79.590	-181.763	34.90	64.63	-44.62	9.702	-46.550	-10.682	-0.73468	-0.45319	-0.37375	0.33920	24.4	13111	100
2025-5-25 10:32:26.329	WT901BLE68(801231B9234C)	1.153	0.946	-0.717	106.262	-52.979	-126.709	32.21	65.24	-50.00	9.702	-46.550	-10.682	-0.73468	-0.45319	-0.37375	0.33920	24.4	13111	100
2025-5-25 10:32:26.389	WT901BLE68(801231B9234C)	1.099	0.877	-0.659	101.746	-2.625	-63.843	32.67	65.88	-51.80	9.702	-46.550	-10.682	-0.73468	-0.45319	-0.37375	0.33920	24.4	13111	100
2025-5-25 10:32:26.389	WT901BLE68(801231B9234C)	0.863	0.932	-0.601	96.436	58.777	-5.615	37.02	66.85	-49.32	9.702	-46.550	-10.682	-0.73468	-0.45319	-0.37375	0.33920	24.4	13111	100
2025-5-25 10:32:26.419	WT901BLE68(801231B9234C)	0.682	1.145	-0.628	70.007	101.563	78.491	45.37	67.48	-42.08	9.702	-46.550	-10.682	-0.73468	-0.45319	-0.37375	0.33920	24.4	13111	100
2025-5-25 10:32:26.419	WT901BLE68(801231B9234C)	0.533	1.293	-0.449	17.273	120.483	165.710	56.54	66.56	-30.83	30.380	-12.054	-30.184	-0.73468	-0.45319	-0.37375	0.33920	24.4	13111	100
2025-5-25 10:32:26.448	WT901BLE68(801231B9234C)	-0.107	1.336	-0.167	-6.165	137.207	248.230	67.58	63.44	-18.66	30.380	-12.054	-30.184	-0.73468	-0.45319	-0.37375	0.33920	24.4	13111	100
2025-5-25 10:32:26.448	WT901BLE68(801231B9234C)	-1.723	1.893	-0.105	-34.363	162.476	306.030	76.78	58.30	-7.67	30.380	-12.054	-30.184	-0.73468	-0.45319	-0.37375	0.33920	24.4	13111	100
2025-5-25 10:32:26.510	WT901BLE68(801231B9234C)	-3.025	2.767	0.207	-131.165	195.740	290.710	82.65	52.40	1.53	30.380	-12.054	-30.184	-0.73468	-0.45319	-0.37375	0.33920	24.4	13111	100
2025-5-25 10:32:26.510	WT901BLE68(801231B9234C)	-2.491	2.018	1.171	-187.500	107.971	353.882	83.19	45.98	7.67	30.380	-12.054	-30.184	-0.73468	-0.45319	-0.37375	0.33920	24.4	13111	100
2025-5-25 10:32:26.539	WT901BLE68(801231B9234C)	-2.545	1.968	1.021	-126.526	77.148	314.514	82.44	39.05	10.86	30.380	-12.054	-30.184	-0.73468	-0.45319	-0.37375	0.33920	24.4	13111	100
2025-5-25 10:32:26.539	WT901BLE68(801231B9234C)	-2.147	1.499	0.880	-168.823	190.857	224.670	82.01	34.45	15.63	30.380	-12.054	-30.184	-0.73468	-0.45319	-0.37375	0.33920	24.4	13111	100
2025-5-25 10:32:26.568	WT901BLE68(801231B9234C)	-1.877	0.770	0.674	-143.005	218.994	217.468	81.84	30.70	21.16	30.380	-12.054	-30.184	-0.73468	-0.45319	-0.37375	0.33920	24.4	13111	100
2025-5-25 10:32:26.568	WT901BLE68(801231B9234C)	-1.759	0.428	0.427	-138.000	261.108	178.772	81.94	27.66	27.04	30.380	-12.054	-30.184	-0.73468	-0.45319	-0.37375	0.33920	24.4	13111	100
2025-5-25 10:32:26.629	WT901BLE68(801231B9234C)	-1.653	0.044	0.140	-128.784	267.212	130.615	82.08	25.71	32.92	30.380	-12.054	-30.184	-0.73468	-0.45319	-0.37375	0.33920	24.4	13111	100
2025-5-25 10:32:26.629	WT901BLE68(801231B9234C)	-1.344	-0.338	-0.062	-108.887	249.451	81.360	82.39	24.67	38.15	30.380	-12.054	-30.184	-0.73468	-0.45319	-0.37375	0.33920	24.4	13111	100
2025-5-25 10:32:26.661	WT901BLE68(801231B9234C)	-1.151	-0.656	-0.168	-92.957	193.665	39.246	82.66	24.53	42.28	30.380	-12.054	-30.184	-0.73199	-0.54965	-0.37906	-0.13519	24.4	13111	100
2025-5-25 10:32:26.661	WT901BLE68(801231B9234C)	-0.892	-1.018	-0.207	-68.054	94.055	-12.146	82.69	25.13	44.41	30.380	-12.054	-30.184	-0.73199	-0.54965	-0.37906	-0.13519	24.4	13111	100
2025-5-25 10:32:26.691	WT901BLE68(801231B9234C)	-0.497	-1.281	-0.193	-42.114	23.438	-56.396	82.63	26.45	44.60	30.380	-12.054	-30.184	-0.73199	-0.54965	-0.37906	-0.13519	24.4	13111	100
2025-5-25 10:32:26.691	WT901BLE68(801231B9234C)	-0.340	-1.472	-0.161	-10.803	3.479	-105.347	82.81	28.62	43.87	30.380	-12.054	-30.184	-0.73199	-0.54965	-0.37906	-0.13519	24.4	13111	100
2025-5-25 10:32:26.749	WT901BLE68(801231B9234C)	-0.534	-1.445	-0.089	33.325	30.518	-152.588	84.00	31.85	43.45	30.380	-12.054	-30.184	-0.73199	-0.54965	-0.37906	-0.13519	24.4	13111	100
2025-5-25 10:32:26.749	WT901BLE68(801231B9234C)	-0.889	-1.155	0.033	91.736	56.091	-205.322	86.72	36.18	43.91	30.380	-12.054	-30.184	-0.73199	-0.54965	-0.37906	-0.13519	24.4	13111	100
2025-5-25 10:32:26.779	WT901BLE68(801231B9234C)	-1.376	-0.682	0.167	123.779	56.335	-219.727	90.87	41.01	45.09	30.380	-12.054	-30.184	-0.73199	-0.54965	-0.37906	-0.13519	24.4	13111	100
2025-5-25 10:32:26.779	WT901BLE68(801231B9234C)	-1.909	-0.470	0.254	138.672	20.386	-267.883	95.53	46.40	46.36	30.380	-12.054	-30.184	-0.73199	-0.54965	-0.37906	-0.13519	24.4	13111	100
2025-5-25 10:32:26.838	WT901BLE68(801231B9234C)	-3.047	-0.073	0.278	146.606	-45.044	-317.200	99.91	52.88	46.86	30.380	-12.054	-30.184	-0.73199	-0.54965	-0.37906	-0.13519	24.4	13111	100
2025-5-25 10:32:26.839	WT901BLE68(801231B9234C)	-3.354	0.441	0.273	143.066	-83.008	-335.754	103.73	60.05	46.68	30.380	-12.054	-30.184	-0.73199	-0.54965	-0.37906	-0.13519	24.4	13111	100
2025-5-25 10:32:26.868	WT901BLE68(801231B9234C)	-3.914	0.741	0.250	143.799	-136.292	-324.463	106.32	67.35	45.30	41.944	-14.406	-14.896	-0.73199	-0.54965	-0.37906	-0.13519	24.4	13111	100
2025-5-25 10:32:26.869	WT901BLE68(801231B9234C)	-4.273	1.234	0.474	91.492	-165.955	-339.966	106.19	74.77	41.72	41.944	-14.406	-14.896	-0.73199	-0.54965	-0.37906	-0.13519	24.4	13111	100
2025-5-25 10:32:26.912	WT901BLE68(801231B9234C)	-2.891	1.855	0.629	51.392	-298.645	-313.721	89.31	82.19	22.68	41.944	-14.406	-14.896	-0.73199	-0.54965	-0.37906	-0.13519	24.4	13111	100
2025-5-25 10:32:26.912	WT901BLE68(801231B9234C)	-1.237	1.886	0.326	41.687	-393.494	-293.457	18.67	82.72	-49.42	41.944	-14.406	-14.896	-0.73199	-0.54965	-0.37906	-0.13519	24.4	13111	100
2025-5-25 10:32:26.959	WT901BLE68(801231B9234C)	-0.611	1.674	-0.391	72.205	-199.463	-240.479	-9.86	77.34	-79.73	41.944	-14.406	-14.896	-0.73199	-0.54965	-0.37906	-0.13519	24.4	13111	100
2025-5-25 10:32:26.959	WT901BLE68(801231B9234C)	-0.158	1.887	-0.470	84.839	73.120	-166.626	-22.13	76.07	-93.70	41.944	-14.406	-14.896	-0.73199	-0.54965	-0.37906	-0.13519	24.4	13111	100
2025-5-25 10:32:26.988	WT901BLE68(801231B9234C)	-0.027	1.587	-0.528	179.260	256.409	-92.651	-35.07	78.83	-109.70	41.944	-14.406	-14.896	-0.73199	-0.54965	-0.37906	-0.13519	24.4	13111	100
2025-5-25 10:32:26.988	WT901BLE68(801231B9234C)	-0.075	1.420	-0.168	209.778	265.137	-40.161	-57.59	82.47	-136.41	41.944	-14.406	-14.896	-0.73199	-0.54965	-0.37906	-0.13519	24.4	13111	100
2025-5-25 10:32:27.21	WT901BLE68(801231B9234C)	0.476	1.211	0.085	193.481	67.627	-46.448	-77.35	83.49	-159.76	41.944	-14.406	-14.896	-0.73199	-0.54965	-0.37906	-0.13519	24.4	13111	100
2025-5-25 10:32:27.21	WT901BLE68(801231B9234C)	1.283	1.310	-0.129	151.733	-110.229	-25.879	-69.23	83.17	-154.57	41.944	-14.406	-14.896	-0.73199	-0.54965	-0.37906	-0.13519	24.4	13111	100
2025-5-25 10:32:27.80	WT901BLE68(801231B9234C)	1.619	1.126	-0.451	120.605	-154.541	-1.709	-48.49	82.14	-135.67	41.944	-14.406	-14.896	-0.51303	-0.43600	-0.49442	0.54968	24.4	13111	100
2025-5-25 10:32:27.80	WT901BLE68(801231B9234C)	1.235	0.909	-0.606	96.741	-118.042	27.466	-33.20	81.03	-121.76	41.944	-14.406	-14.896	-0.51303	-0.43600	-0.49442	0.54968	24.4	13111	100
2025-5-25 10:32:27.110	WT901BLE68(801231B9234C)	0.938	0.816	-0.527	89.783	-5.310	165.833	-12.30	81.80	-102.22	41.944	-14.406	-14.896	-0.51303	-0.43600	-0.49442	0.54968	24.4	13111	100
2025-5-25 10:32:27.110	WT901BLE68(801231B9234C)	0.857	1.032	-0.374	53.040	105.103	293.701	31.66	82.77	-58.93	41.944	-14.406	-14.896	-0.51303	-0.43600	-0.49442	0.54968	24.4	13111	100
2025-5-25 10:32:27.138	WT901BLE68(801231B9234C)	0.059	1.394	-0.340	-10.925	150.696	373.108	74.11	78.12	-16.07	41.944	-14.406	-14.896	-0.51303	-0.43600	-0.49442	0.54968	24.4	13111	100
2025-5-25 10:32:27.138	WT901BLE68(801231B9234C)	-1.989	1.758	-0.395	-63.599	166.687	421.143	89.88	69.74	1.43	41.944	-14.406	-14.896	-0.51303	-0.43600	-0.49442	0.54968	24.4	13111	100
2025-5-25 10:32:27.199	WT901BLE68(801231B9234C)	-4.888	3.667	-0.180	-174.866	213.074	440.002	95.56	59.83	10.42	41.944	-14.406	-14.896	-0.51303	-0.43600	-0.49442	0.54968	24.4	13111	100
2025-5-25 10:32:27.199	WT901BLE68(801231B9234C)	-3.100	2.788	0.569	-260.803	185.852	415.100	95.09	51.03	16.51	41.944	-14.406	-14.896	-0.51303	-0.43600	-0.49442	0.54968	24.4	13111	100
2025-5-25 10:32:27.229	WT901BLE68(801231B9234C)	-4.360	2.543	0.750	-78.125	218.079	340.515	95.36	42.53	20.53	41.944	-14.406	-14.896	-0.51303	-0.43600	-0.49442	0.54968	24.4	13111	100
2025-5-25 10:32:27.229	WT901BLE68(801231B9234C)	-3.393	1.832	0.541	-217.529	277.405	85.327	96.62	38.57	28.10	35.084	-18.522	-22.638	-0.51303	-0.43600	-0.49442	0.54968	24.4	13111	100
2025-5-25 10:32:27.257	WT901BLE68(801231B9234C)	-2.158	-0.017	0.658	-112.305	37.781	45.166	95.14	37.08	31.01	35.084	-18.522	-22.638	-0.51303	-0.43600	-0.49442	0.54968	24.4	13111	100
2025-5-25 10:32:27.258	WT901BLE68(801231B9234C)	-1.446	-0.193	0.506	-79.346	-4.883	18.066	93.41	36.75	30.85	35.084	-18.522	-22.638	-0.51303	-0.43600	-0.49442	0.54968	24.4	13111	100
2025-5-25 10:32:27.318	WT901BLE68(801231B9234C)	-0.963	-0.552	0.436	-85.876	9.827	14.954	91.77	36.79	30.52	35.084	-18.522	-22.638	-0.51303	-0.43600	-0.49442	0.54968	24.4	13111	100
2025-5-25 10:32:27.319	WT901BLE68(801231B9234C)	-0.491	-0.880	0.466	-75.439	8.667	-8.179	90.45	37.13	30.34	35.084	-18.522	-22.638	-0.51303	-0.43600	-0.49442	0.54968	24.4	13111	100
2025-5-25 10:32:27.348	WT901BLE68(801231B9234C)	-0.079	-0.961	0.381	-63.599	-27.344	-24.963	89.05	37.94	29.32	35.084	-18.522	-22.638	-0.51303	-0.43600	-0.49442	0.54968	24.4	13111	100
2025-5-25 10:32:27.348	WT901BLE68(801231B9234C)	0.065	-1.090	0.311	-58.167	-32.227	-46.448	87.58	39.16	27.73	35.084	-18.522	-22.638	-0.51303	-0.43600	-0.49442	0.54968	24.4	13111	100
2025-5-25 10:32:27.378	WT901BLE68(801231B9234C)	0.144	-1.278	0.320	-52.002	-14.404	-61.462	86.49	40.79	26.44	35.084	-18.522	-22.638	-0.51303	-0.43600	-0.49442	0.54968	24.4	13111	100
2025-5-25 10:32:27.379	WT901BLE68(801231B9234C)	0.248	-1.431	0.304	-34.912	-16.174	-87.341	85.84	42.90	25.33	35.084	-18.522	-22.638	-0.51303	-0.43600	-0.49442	0.54968	24.4	13111	100
2025-5-25 10:32:27.439	WT901BLE68(801231B9234C)	0.149	-1.427	0.143	-17.395	-12.878	-125.122	85.56	45.80	24.22	35.084	-18.522	-22.638	-0.51303	-0.43600	-0.49442	0.54968	24.4	13111	100
2025-5-25 10:32:27.439	WT901BLE68(801231B9234C)	-0.315	-1.307	0.065	9.827	35.706	-143.555	86.50	49.36	24.21	35.084	-18.522	-22.638	-0.51303	-0.43600	-0.49442	0.54968	24.4	13111	100
2025-5-25 10:32:27.467	WT901BLE68(801231B9234C)	-1.194	-1.002	0.300	51.453	65.125	-166.870	89.55	53.33	25.95	35.084	-18.522	-22.638	-0.68201	-0.54654	-0.45462	0.17136	24.4	13111	100
2025-5-25 10:32:27.468	WT901BLE68(801231B9234C)	-2.684	-0.611	0.656	54.871	27.466	-223.572	93.30	58.05	27.91	35.084	-18.522	-22.638	-0.68201	-0.54654	-0.45462	0.17136	24.4	13111	100
2025-5-25 10:32:27.498	WT901BLE68(801231B9234C)	-3.739	-0.198	0.774	32.104	-68.665	-307.190	94.73	64.38	27.60	35.084	-18.522	-22.638	-0.68201	-0.54654	-0.45462	0.17136	24.4	13111	100
2025-5-25 10:32:27.499	WT901BLE68(801231B9234C)	-3.660	0.554	0.909	28.442	-188.232	-290.649	90.32	71.11	21.13	35.084	-18.522	-22.638	-0.68201	-0.54654	-0.45462	0.17136	24.4	13111	100
2025-5-25 10:32:27.559	WT901BLE68(801231B9234C)	-4.131	0.547	0.876	4.456	-218.262	-289.124	73.26	76.42	2.09	35.084	-18.522	-22.638	-0.68201	-0.54654	-0.45462	0.17136	24.4	13111	100
2025-5-25 10:32:27.559	WT901BLE68(801231B9234C)	-3.382	0.979	1.216	-87.524	-177.368	-385.010	38.53	80.85	-32.67	35.084	-18.522	-22.638	-0.68201	-0.54654	-0.45462	0.17136	24.4	13111	100
2025-5-25 10:32:27.588	WT901BLE68(801231B9234C)	-2.035	1.410	1.050	-60.364	-279.602	-348.999	-6.82	77.85	-77.55	35.084	-18.522	-22.638	-0.68201	-0.54654	-0.45462	0.17136	24.4	13111	100
2025-5-25 10:32:27.588	WT901BLE68(801231B9234C)	-1.072	1.308	0.361	-29.053	-223.938	-297.913	-23.94	71.19	-94.43	35.084	-18.522	-22.638	-0.68201	-0.54654	-0.45462	0.17136	24.4	13111	100
2025-5-25 10:32:27.619	WT901BLE68(801231B9234C)	-0.929	0.817	0.022	-7.324	-28.992	-192.444	-32.21	67.28	-102.85	35.084	-18.522	-22.638	-0.68201	-0.54654	-0.45462	0.17136	24.4	13111	100
2025-5-25 10:32:27.619	WT901BLE68(801231B9234C)	-0.564	1.482	-0.099	51.392	119.385	-123.230	-38.82	67.04	-110.39	35.084	-18.522	-22.638	-0.68201	-0.54654	-0.45462	0.17136	24.4	13111	100
2025-5-25 10:32:27.678	WT901BLE68(801231B9234C)	0.003	1.224	0.028	89.722	109.802	-88.257	-44.17	68.09	-117.64	23.324	15.778	-31.850	-0.68201	-0.54654	-0.45462	0.17136	24.4	13111	100
2025-5-25 10:32:27.678	WT901BLE68(801231B9234C)	0.659	1.250	-0.046	124.329	1.038	-88.745	-45.79	67.86	-121.53	23.324	15.778	-31.850	-0.68201	-0.54654	-0.45462	0.17136	24.4	13111	100
2025-5-25 10:32:27.710	WT901BLE68(801231B9234C)	1.248	1.425	-0.399	104.736	-53.406	-92.773	-44.58	66.60	-122.42	23.324	15.778	-31.850	-0.68201	-0.54654	-0.45462	0.17136	24.4	13111	100
2025-5-25 10:32:27.711	WT901BLE68(801231B9234C)	1.122	1.135	-0.643	133.911	-9.705	-76.233	-43.25	65.62	-123.21	23.324	15.778	-31.850	-0.68201	-0.54654	-0.45462	0.17136	24.4	13111	100
2025-5-25 10:32:27.738	WT901BLE68(801231B9234C)	0.724	1.088	-0.699	131.470	23.438	-14.404	-41.70	66.11	-124.28	23.324	15.778	-31.850	-0.68201	-0.54654	-0.45462	0.17136	24.4	13111	100
2025-5-25 10:32:27.738	WT901BLE68(801231B9234C)	0.694	0.917	-0.563	120.300	41.931	125.793	-36.53	68.38	-121.25	23.324	15.778	-31.850	-0.68201	-0.54654	-0.45462	0.17136	24.4	13111	100
2025-5-25 10:32:27.798	WT901BLE68(801231B9234C)	0.731	1.062	-0.446	97.473	76.843	268.677	-24.31	72.58	-110.42	23.324	15.778	-31.850	-0.68201	-0.54654	-0.45462	0.17136	24.4	13111	100
2025-5-25 10:32:27.798	WT901BLE68(801231B9234C)	0.188	1.299	-0.381	66.223	96.558	369.507	2.14	76.22	-84.47	23.324	15.778	-31.850	-0.68201	-0.54654	-0.45462	0.17136	24.4	13111	100
2025-5-25 10:32:27.830	WT901BLE68(801231B9234C)	-0.731	1.531	-0.146	20.813	107.056	432.556	39.13	75.38	-47.03	23.324	15.778	-31.850	-0.68201	-0.54654	-0.45462	0.17136	24.4	13111	100
2025-5-25 10:32:27.830	WT901BLE68(801231B9234C)	-4.070	2.405	0.724	-46.753	60.425	482.910	62.73	68.40	-21.93	23.324	15.778	-31.850	-0.68201	-0.54654	-0.45462	0.17136	24.4	13111	100
2025-5-25 10:32:27.860	WT901BLE68(801231B9234C)	-3.415	3.532	1.579	-184.570	40.527	401.917	69.72	60.45	-11.07	23.324	15.778	-31.850	-0.68201	-0.54654	-0.45462	0.17136	24.4	13111	100
2025-5-25 10:32:27.861	WT901BLE68(801231B9234C)	-3.516	1.611	2.421	-7.690	-84.595	443.359	71.73	51.38	-6.34	23.324	15.778	-31.850	-0.71436	-0.55093	-0.31653	0.29303	24.4	13111	100
2025-5-25 10:32:27.918	WT901BLE68(801231B9234C)	-2.576	2.168	1.976	-69.946	136.780	243.103	74.10	45.48	-1.89	23.324	15.778	-31.850	-0.71436	-0.55093	-0.31653	0.29303	24.4	13111	100
2025-5-25 10:32:27.918	WT901BLE68(801231B9234C)	-2.125	0.747	1.470	-20.691	228.333	204.529	77.58	42.22	4.82	23.324	15.778	-31.850	-0.71436	-0.55093	-0.31653	0.29303	24.4	13111	100
2025-5-25 10:32:27.948	WT901BLE68(801231B9234C)	-1.961	-0.015	1.077	-24.414	287.659	181.152	81.95	39.44	12.54	23.324	15.778	-31.850	-0.71436	-0.55093	-0.31653	0.29303	24.4	13111	100
2025-5-25 10:32:27.948	WT901BLE68(801231B9234C)	-1.397	-0.457	0.825	-13.733	234.802	143.921	85.57	37.08	19.26	23.324	15.778	-31.850	-0.71436	-0.55093	-0.31653	0.29303	24.4	13111	100
2025-5-25 10:32:27.979	WT901BLE68(801231B9234C)	-0.875	-0.691	0.685	-13.489	140.259	113.098	87.61	35.15	23.23	23.324	15.778	-31.850	-0.71436	-0.55093	-0.31653	0.29303	24.4	13111	100
2025-5-25 10:32:27.979	WT901BLE68(801231B9234C)	-0.578	-0.917	0.568	-29.297	85.022	74.646	88.45	33.92	25.16	23.324	15.778	-31.850	-0.71436	-0.55093	-0.31653	0.29303	24.4	13111	100
2025-5-25 10:32:28.39	WT901BLE68(801231B9234C)	-0.360	-1.210	0.484	-44.861	45.715	39.551	88.56	33.46	25.82	23.324	15.778	-31.850	-0.71436	-0.55093	-0.31653	0.29303	24.4	13111	100
2025-5-25 10:32:28.40	WT901BLE68(801231B9234C)	-0.208	-1.338	0.414	-58.655	22.583	0.244	88.19	33.85	25.76	23.324	15.778	-31.850	-0.71436	-0.55093	-0.31653	0.29303	24.4	13111	100
2025-5-25 10:32:28.68	WT901BLE68(801231B9234C)	-0.061	-1.562	0.327	-73.303	3.174	-43.884	87.33	35.10	25.21	33.516	-16.758	-25.676	-0.71436	-0.55093	-0.31653	0.29303	24.4	13111	100
2025-5-25 10:32:28.68	WT901BLE68(801231B9234C)	-0.007	-1.821	0.115	-66.650	14.160	-101.196	86.51	37.47	24.71	33.516	-16.758	-25.676	-0.71436	-0.55093	-0.31653	0.29303	24.4	13111	100
2025-5-25 10:32:28.98	WT901BLE68(801231B9234C)	-0.350	-1.603	0.078	-27.405	51.025	-136.963	86.80	40.85	25.10	33.516	-16.758	-25.676	-0.71436	-0.55093	-0.31653	0.29303	24.4	13111	100
2025-5-25 10:32:28.99	WT901BLE68(801231B9234C)	-1.215	-1.083	0.419	17.151	69.397	-181.152	88.74	44.98	26.49	33.516	-16.758	-25.676	-0.71436	-0.55093	-0.31653	0.29303	24.4	13111	100
2025-5-25 10:32:28.159	WT901BLE68(801231B9234C)	-1.955	-0.753	0.762	25.452	44.434	-269.043	91.41	50.41	28.12	33.516	-16.758	-25.676	-0.71436	-0.55093	-0.31653	0.29303	24.4	13111	100
2025-5-25 10:32:28.159	WT901BLE68(801231B9234C)	-2.941	-0.559	0.729	28.015	-33.508	-346.924	93.09	57.71	28.39	33.516	-16.758	-25.676	-0.71436	-0.55093	-0.31653	0.29303	24.4	13111	100
2025-5-25 10:32:28.188	WT901BLE68(801231B9234C)	-3.652	0.000	0.914	45.349	-117.188	-327.026	92.43	65.24	25.53	33.516	-16.758	-25.676	-0.71436	-0.55093	-0.31653	0.29303	24.4	13111	100
2025-5-25 10:32:28.188	WT901BLE68(801231B9234C)	-4.554	-0.028	1.135	21.606	-206.421	-307.373	84.53	71.86	15.30	33.516	-16.758	-25.676	-0.71436	-0.55093	-0.31653	0.29303	24.4	13111	100
2025-5-25 10:32:28.249	WT901BLE68(801231B9234C)	-3.605	0.816	1.512	-77.759	-318.359	-355.591	58.55	77.28	-11.67	33.516	-16.758	-25.676	-0.71436	-0.55093	-0.31653	0.29303	24.4	13111	100
2025-5-25 10:32:28.249	WT901BLE68(801231B9234C)	-1.801	1.227	1.245	-35.583	-420.837	-315.186	16.68	74.83	-54.04	33.516	-16.758	-25.676	-0.71436	-0.55093	-0.31653	0.29303	24.4	13111	100
2025-5-25 10:32:28.280	WT901BLE68(801231B9234C)	-0.814	1.785	0.422	59.998	-222.351	-264.404	-2.14	69.19	-74.55	33.516	-16.758	-25.676	-0.65839	-0.32632	-0.45386	0.50391	24.4	13111	100
2025-5-25 10:32:28.281	WT901BLE68(801231B9234C)	-0.773	1.028	-0.249	41.870	155.212	-143.738	-10.77	69.11	-85.00	33.516	-16.758	-25.676	-0.65839	-0.32632	-0.45386	0.50391	24.4	13111	100
2025-5-25 10:32:28.311	WT901BLE68(801231B9234C)	-1.040	1.065	-0.348	122.070	398.743	-127.869	-22.14	74.66	-98.33	33.516	-16.758	-25.676	-0.65839	-0.32632	-0.45386	0.50391	24.4	13111	100
2025-5-25 10:32:28.311	WT901BLE68(801231B9234C)	-0.927	1.047	-0.058	142.822	353.271	-102.966	-45.01	80.50	-124.36	33.516	-16.758	-25.676	-0.65839	-0.32632	-0.45386	0.50391	24.4	13111	100
2025-5-25 10:32:28.369	WT901BLE68(801231B9234C)	0.164	1.125	0.146	188.232	91.370	-90.393	-66.32	81.50	-148.99	33.516	-16.758	-25.676	-0.65839	-0.32632	-0.45386	0.50391	24.4	13111	100
2025-5-25 10:32:28.369	WT901BLE68(801231B9234C)	1.242	1.347	-0.213	158.630	-120.422	-59.021	-60.13	80.12	-145.83	33.516	-16.758	-25.676	-0.65839	-0.32632	-0.45386	0.50391	24.4	13111	100
2025-5-25 10:32:28.398	WT901BLE68(801231B9234C)	1.411	1.135	-0.633	166.199	-125.488	-85.693	-49.30	78.01	-137.74	33.516	-16.758	-25.676	-0.65839	-0.32632	-0.45386	0.50391	24.4	13111	100
2025-5-25 10:32:28.398	WT901BLE68(801231B9234C)	1.104	1.202	-0.842	134.277	-79.651	-63.477	-44.17	76.11	-135.12	33.516	-16.758	-25.676	-0.65839	-0.32632	-0.45386	0.50391	24.4	13111	100
2025-5-25 10:32:28.431	WT901BLE68(801231B9234C)	0.750	0.843	-0.669	106.689	20.813	78.979	-38.40	77.08	-131.30	33.516	-16.758	-25.676	-0.65839	-0.32632	-0.45386	0.50391	24.4	13111	100
2025-5-25 10:32:28.431	WT901BLE68(801231B9234C)	0.717	0.940	-0.336	77.271	85.388	215.881	-23.33	80.88	-117.59	33.516	-16.758	-25.676	-0.65839	-0.32632	-0.45386	0.50391	24.4	13111	100
2025-5-25 10:32:28.489	WT901BLE68(801231B9234C)	0.343	1.338	-0.255	31.860	95.581	311.951	22.80	83.44	-71.80	27.048	7.252	-33.516	-0.65839	-0.32632	-0.45386	0.50391	24.4	13111	100
2025-5-25 10:32:28.489	WT901BLE68(801231B9234C)	-0.366	1.564	-0.237	-20.569	93.079	365.662	67.75	79.23	-26.13	27.048	7.252	-33.516	-0.65839	-0.32632	-0.45386	0.50391	24.4	13111	100
2025-5-25 10:32:28.518	WT901BLE68(801231B9234C)	-3.152	1.995	0.401	-72.876	89.478	432.007	82.72	71.03	-9.41	27.048	7.252	-33.516	-0.65839	-0.32632	-0.45386	0.50391	24.4	13111	100
2025-5-25 10:32:28.518	WT901BLE68(801231B9234C)	-3.778	3.647	1.050	-217.590	56.152	362.000	85.46	62.51	-2.75	27.048	7.252	-33.516	-0.65839	-0.32632	-0.45386	0.50391	24.4	13111	100
2025-5-25 10:32:28.548	WT901BLE68(801231B9234C)	-3.047	1.614	2.075	-88.562	-60.730	419.678	83.82	54.08	-0.54	27.048	7.252	-33.516	-0.65839	-0.32632	-0.45386	0.50391	24.4	13111	100
2025-5-25 10:32:28.548	WT901BLE68(801231B9234C)	-2.770	2.704	1.818	-53.528	76.599	243.591	83.79	47.40	0.86	27.048	7.252	-33.516	-0.65839	-0.32632	-0.45386	0.50391	24.4	13111	100
2025-5-25 10:32:28.609	WT901BLE68(801231B9234C)	-1.968	1.050	1.275	-56.335	174.438	158.203	85.50	44.16	5.75	27.048	7.252	-33.516	-0.65839	-0.32632	-0.45386	0.50391	24.4	13111	100
2025-5-25 10:32:28.609	WT901BLE68(801231B9234C)	-1.714	0.320	0.968	-25.024	205.811	135.498	88.25	41.48	11.22	27.048	7.252	-33.516	-0.65839	-0.32632	-0.45386	0.50391	24.4	13111	100
2025-5-25 10:32:28.641	WT901BLE68(801231B9234C)	-1.492	-0.002	0.757	-30.151	207.581	130.920	90.93	39.05	16.64	27.048	7.252	-33.516	-0.65839	-0.32632	-0.45386	0.50391	24.4	13111	100
2025-5-25 10:32:28.641	WT901BLE68(801231B9234C)	-1.151	-0.530	0.708	-39.978	141.296	120.056	92.37	36.62	20.53	27.048	7.252	-33.516	-0.68607	-0.64090	-0.33313	0.08649	24.4	13111	100
2025-5-25 10:32:28.670	WT901BLE68(801231B9234C)	-0.779	-0.796	0.676	-54.993	68.665	94.116	92.39	34.80	22.25	27.048	7.252	-33.516	-0.68607	-0.64090	-0.33313	0.08649	24.4	13111	100
2025-5-25 10:32:28.671	WT901BLE68(801231B9234C)	-0.453	-0.939	0.608	-68.176	20.264	62.988	91.48	33.84	22.38	27.048	7.252	-33.516	-0.68607	-0.64090	-0.33313	0.08649	24.4	13111	100
2025-5-25 10:32:28.729	WT901BLE68(801231B9234C)	-0.265	-1.117	0.533	-81.787	-5.371	32.532	90.04	33.61	21.62	27.048	7.252	-33.516	-0.68607	-0.64090	-0.33313	0.08649	24.4	13111	100
2025-5-25 10:32:28.730	WT901BLE68(801231B9234C)	-0.174	-1.478	0.425	-86.487	-13.794	9.277	88.47	33.92	20.55	27.048	7.252	-33.516	-0.68607	-0.64090	-0.33313	0.08649	24.4	13111	100
2025-5-25 10:32:28.758	WT901BLE68(801231B9234C)	-0.092	-2.110	0.302	-88.806	-16.602	-43.579	86.95	35.08	19.51	27.048	7.252	-33.516	-0.68607	-0.64090	-0.33313	0.08649	24.4	13111	100
2025-5-25 10:32:28.758	WT901BLE68(801231B9234C)	-0.298	-2.069	0.120	-49.744	-7.935	-122.559	85.87	37.80	18.56	27.048	7.252	-33.516	-0.68607	-0.64090	-0.33313	0.08649	24.4	13111	100
2025-5-25 10:32:28.789	WT901BLE68(801231B9234C)	-0.979	-1.700	0.385	3.845	15.381	-167.297	86.19	41.51	18.31	27.048	7.252	-33.516	-0.68607	-0.64090	-0.33313	0.08649	24.4	13111	100
2025-5-25 10:32:28.790	WT901BLE68(801231B9234C)	-1.825	-0.924	0.768	27.466	-25.940	-254.211	87.05	46.81	17.54	27.048	7.252	-33.516	-0.68607	-0.64090	-0.33313	0.08649	24.4	13111	100
2025-5-25 10:32:28.849	WT901BLE68(801231B9234C)	-2.625	-0.527	0.830	6.287	-104.248	-354.919	85.72	53.99	14.36	27.048	7.252	-33.516	-0.68607	-0.64090	-0.33313	0.08649	24.4	13111	100
2025-5-25 10:32:28.850	WT901BLE68(801231B9234C)	-3.606	-0.245	0.856	0.793	-165.344	-380.981	80.40	61.91	7.12	27.048	7.252	-33.516	-0.68607	-0.64090	-0.33313	0.08649	24.4	13111	100
2025-5-25 10:32:28.881	WT901BLE68(801231B9234C)	-4.145	0.228	1.169	-13.855	-254.028	-317.078	67.63	68.05	-7.75	33.712	-5.292	-28.910	-0.68607	-0.64090	-0.33313	0.08649	24.4	13111	100
2025-5-25 10:32:28.881	WT901BLE68(801231B9234C)	-3.441	0.604	1.466	-88.989	-276.794	-356.628	44.96	71.04	-31.42	33.712	-5.292	-28.910	-0.68607	-0.64090	-0.33313	0.08649	24.4	13111	100
2025-5-25 10:32:28.910	WT901BLE68(801231B9234C)	-2.207	1.318	1.504	-69.031	-308.533	-346.985	16.78	69.51	-59.68	33.712	-5.292	-28.910	-0.68607	-0.64090	-0.33313	0.08649	24.4	13111	100
2025-5-25 10:32:28.910	WT901BLE68(801231B9234C)	-1.383	1.985	1.073	-27.100	-151.672	-298.218	-0.66	66.06	-77.67	33.712	-5.292	-28.910	-0.68607	-0.64090	-0.33313	0.08649	24.4	13111	100
2025-5-25 10:32:28.969	WT901BLE68(801231B9234C)	-1.162	1.119	0.277	-26.001	89.111	-215.332	-11.84	65.52	-89.37	33.712	-5.292	-28.910	-0.68607	-0.64090	-0.33313	0.08649	24.4	13111	100
2025-5-25 10:32:28.969	WT901BLE68(801231B9234C)	-0.718	1.611	-0.190	40.649	254.211	-157.715	-21.62	68.69	-100.05	33.712	-5.292	-28.910	-0.68607	-0.64090	-0.33313	0.08649	24.4	13111	100
2025-5-25 10:32:28.998	WT901BLE68(801231B9234C)	-0.370	1.352	-0.242	131.775	288.879	-97.229	-31.63	72.90	-112.63	33.712	-5.292	-28.910	-0.68607	-0.64090	-0.33313	0.08649	24.4	13111	100
2025-5-25 10:32:28.998	WT901BLE68(801231B9234C)	-0.032	1.200	0.074	131.714	177.917	-111.694	-43.30	75.81	-127.30	33.712	-5.292	-28.910	-0.68607	-0.64090	-0.33313	0.08649	24.4	13111	100
2025-5-25 10:32:29.59	WT901BLE68(801231B9234C)	0.805	1.371	-0.163	141.418	25.085	-116.577	-49.95	75.64	-136.81	33.712	-5.292	-28.910	-0.68607	-0.64090	-0.33313	0.08649	24.4	13111	100
2025-5-25 10:32:29.59	WT901BLE68(801231B9234C)	1.309	1.198	-0.602	146.790	-41.992	-84.961	-49.32	74.38	-138.55	33.712	-5.292	-28.910	-0.68607	-0.64090	-0.33313	0.08649	24.4	13111	100
2025-5-25 10:32:29.88	WT901BLE68(801231B9234C)	1.218	1.396	-0.691	146.545	-37.781	-73.792	-47.25	73.46	-139.18	33.712	-5.292	-28.910	-0.47485	-0.40311	-0.48294	0.61536	24.4	13111	100
2025-5-25 10:32:29.88	WT901BLE68(801231B9234C)	0.917	1.261	-0.772	118.958	10.376	24.109	-44.17	73.77	-138.10	33.712	-5.292	-28.910	-0.47485	-0.40311	-0.48294	0.61536	24.4	13111	100
2025-5-25 10:32:29.120	WT901BLE68(801231B9234C)	0.760	1.107	-0.476	99.731	91.125	167.419	-36.96	77.18	-132.65	33.712	-5.292	-28.910	-0.47485	-0.40311	-0.48294	0.61536	24.4	13111	100
2025-5-25 10:32:29.121	WT901BLE68(801231B9234C)	0.350	1.271	-0.245	67.383	145.081	282.715	-14.16	82.51	-110.98	33.712	-5.292	-28.910	-0.47485	-0.40311	-0.48294	0.61536	24.4	13111	100
2025-5-25 10:32:29.150	WT901BLE68(801231B9234C)	-1.093	1.543	-0.027	20.874	153.137	353.149	52.43	83.45	-44.57	33.712	-5.292	-28.910	-0.47485	-0.40311	-0.48294	0.61536	24.4	13111	100
2025-5-25 10:32:29.150	WT901BLE68(801231B9234C)	-4.314	2.510	0.705	-126.099	56.274	406.860	81.23	76.11	-13.92	33.712	-5.292	-28.910	-0.47485	-0.40311	-0.48294	0.61536	24.4	13111	100
2025-5-25 10:32:29.208	WT901BLE68(801231B9234C)	-3.248	3.108	1.375	-202.698	-10.986	410.400	82.06	67.65	-8.73	33.712	-5.292	-28.910	-0.47485	-0.40311	-0.48294	0.61536	24.4	13111	100
2025-5-25 10:32:29.208	WT901BLE68(801231B9234C)	-3.088	1.749	2.368	-38.452	-136.414	448.303	79.49	57.77	-9.10	33.712	-5.292	-28.910	-0.47485	-0.40311	-0.48294	0.61536	24.4	13111	100
2025-5-25 10:32:29.241	WT901BLE68(801231B9234C)	-2.485	1.902	2.015	-98.816	121.948	259.094	80.16	51.33	-5.92	33.712	-5.292	-28.910	-0.47485	-0.40311	-0.48294	0.61536	24.4	13111	100
2025-5-25 10:32:29.241	WT901BLE68(801231B9234C)	-1.919	0.797	1.432	-57.495	226.257	189.819	83.51	47.49	1.01	33.712	-5.292	-28.910	-0.47485	-0.40311	-0.48294	0.61536	24.4	13111	100
2025-5-25 10:32:29.271	WT901BLE68(801231B9234C)	-1.705	0.175	1.060	-45.959	266.296	149.414	87.65	44.62	8.62	33.712	-5.292	-28.910	-0.47485	-0.40311	-0.48294	0.61536	24.4	13111	100
2025-5-25 10:32:29.272	WT901BLE68(801231B9234C)	-1.400	-0.199	0.759	-58.289	220.520	142.151	90.69	41.86	15.09	28.126	-9.310	-32.732	-0.47485	-0.40311	-0.48294	0.61536	24.4	13111	100
2025-5-25 10:32:29.328	WT901BLE68(801231B9234C)	-1.051	-0.321	0.531	-66.467	126.465	122.803	91.70	39.43	18.95	28.126	-9.310	-32.732	-0.47485	-0.40311	-0.48294	0.61536	24.4	13111	100
2025-5-25 10:32:29.329	WT901BLE68(801231B9234C)	-0.754	-0.497	0.375	-83.740	47.058	111.145	90.90	37.42	20.32	28.126	-9.310	-32.732	-0.47485	-0.40311	-0.48294	0.61536	24.4	13111	100
2025-5-25 10:32:29.357	WT901BLE68(801231B9234C)	-0.479	-0.737	0.256	-87.463	7.507	104.004	89.21	35.78	20.23	28.126	-9.310	-32.732	-0.47485	-0.40311	-0.48294	0.61536	24.4	13111	100
2025-5-25 10:32:29.358	WT901BLE68(801231B9234C)	-0.266	-1.029	0.218	-87.097	2.747	90.210	87.50	34.46	19.65	28.126	-9.310	-32.732	-0.47485	-0.40311	-0.48294	0.61536	24.4	13111	100
2025-5-25 10:32:29.388	WT901BLE68(801231B9234C)	-0.131	-1.542	0.188	-82.886	3.662	53.284	86.01	33.75	19.04	28.126	-9.310	-32.732	-0.47485	-0.40311	-0.48294	0.61536	24.4	13111	100
2025-5-25 10:32:29.388	WT901BLE68(801231B9234C)	-0.016	-2.018	0.122	-75.439	22.400	-23.315	85.06	34.34	18.76	28.126	-9.310	-32.732	-0.47485	-0.40311	-0.48294	0.61536	24.4	13111	100
2025-5-25 10:32:29.450	WT901BLE68(801231B9234C)	-0.344	-2.526	0.117	-61.523	63.171	-27.649	84.85	36.41	19.13	28.126	-9.310	-32.732	-0.47485	-0.40311	-0.48294	0.61536	24.4	13111	100
2025-5-25 10:32:29.451	WT901BLE68(801231B9234C)	-1.097	-1.555	0.205	36.865	45.288	-169.739	86.26	40.05	19.90	28.126	-9.310	-32.732	-0.47485	-0.40311	-0.48294	0.61536	24.4	13111	100
2025-5-25 10:32:29.481	WT901BLE68(801231B9234C)	-1.524	-1.005	0.628	38.269	11.719	-222.656	88.30	44.93	20.36	28.126	-9.310	-32.732	-0.47485	-0.40311	-0.48294	0.61536	24.4	13111	100
2025-5-25 10:32:29.481	WT901BLE68(801231B9234C)	-1.844	-0.746	0.667	33.203	-82.336	-327.637	88.49	51.67	18.61	28.126	-9.310	-32.732	-0.67691	-0.56308	-0.41687	0.22546	24.4	13111	100
2025-5-25 10:32:29.509	WT901BLE68(801231B9234C)	-3.131	-0.477	0.737	22.217	-131.775	-357.910	86.01	59.35	13.84	28.126	-9.310	-32.732	-0.67691	-0.56308	-0.41687	0.22546	24.4	13111	100
2025-5-25 10:32:29.509	WT901BLE68(801231B9234C)	-3.611	-0.098	0.932	20.142	-137.329	-348.572	79.97	66.88	5.69	28.126	-9.310	-32.732	-0.67691	-0.56308	-0.41687	0.22546	24.4	13111	100
2025-5-25 10:32:29.569	WT901BLE68(801231B9234C)	-4.048	0.231	1.293	-13.733	-165.649	-335.449	67.44	73.11	-8.37	28.126	-9.310	-32.732	-0.67691	-0.56308	-0.41687	0.22546	24.4	13111	100
2025-5-25 10:32:29.569	WT901BLE68(801231B9234C)	-3.235	0.880	1.579	-47.974	-236.877	-340.027	38.81	76.48	-37.66	28.126	-9.310	-32.732	-0.67691	-0.56308	-0.41687	0.22546	24.4	13111	100
2025-5-25 10:32:29.597	WT901BLE68(801231B9234C)	-2.334	1.327	1.557	-58.044	-222.412	-323.669	7.67	74.86	-68.83	28.126	-9.310	-32.732	-0.67691	-0.56308	-0.41687	0.22546	24.4	13111	100
2025-5-25 10:32:29.598	WT901BLE68(801231B9234C)	-1.157	1.853	0.727	14.893	-135.498	-284.485	-11.83	70.85	-88.75	28.126	-9.310	-32.732	-0.67691	-0.56308	-0.41687	0.22546	24.4	13111	100
2025-5-25 10:32:29.659	WT901BLE68(801231B9234C)	-0.697	1.826	0.135	31.860	118.713	-179.688	-22.21	70.04	-100.11	28.126	-9.310	-32.732	-0.67691	-0.56308	-0.41687	0.22546	24.4	13111	100
2025-5-25 10:32:29.659	WT901BLE68(801231B9234C)	-0.540	1.371	-0.230	79.041	275.574	-133.484	-34.27	72.83	-113.74	28.126	-9.310	-32.732	-0.67691	-0.56308	-0.41687	0.22546	24.4	13111	100
2025-5-25 10:32:29.687	WT901BLE68(801231B9234C)	-0.345	1.224	-0.152	143.555	322.327	-93.018	-51.31	76.46	-133.74	20.286	15.680	-34.006	-0.67691	-0.56308	-0.41687	0.22546	24.4	13111	100
2025-5-25 10:32:29.688	WT901BLE68(801231B9234C)	0.354	1.247	0.021	144.653	159.180	-92.529	-68.59	77.70	-154.03	20.286	15.680	-34.006	-0.67691	-0.56308	-0.41687	0.22546	24.4	13111	100
2025-5-25 10:32:29.718	WT901BLE68(801231B9234C)	1.080	1.383	-0.140	135.498	-14.465	-88.928	-71.41	76.84	-159.38	20.286	15.680	-34.006	-0.67691	-0.56308	-0.41687	0.22546	24.4	13111	100
2025-5-25 10:32:29.718	WT901BLE68(801231B9234C)	1.162	1.227	-0.472	157.227	-61.890	-90.393	-66.80	75.42	-156.90	20.286	15.680	-34.006	-0.67691	-0.56308	-0.41687	0.22546	24.4	13111	100
2025-5-25 10:32:29.779	WT901BLE68(801231B9234C)	0.774	1.183	-0.574	137.939	-75.928	-46.021	-61.67	74.37	-154.14	20.286	15.680	-34.006	-0.67691	-0.56308	-0.41687	0.22546	24.4	13111	100
2025-5-25 10:32:29.779	WT901BLE68(801231B9234C)	0.764	1.111	-0.463	111.389	-31.799	90.698	-53.84	75.36	-148.23	20.286	15.680	-34.006	-0.67691	-0.56308	-0.41687	0.22546	24.4	13111	100
2025-5-25 10:32:29.808	WT901BLE68(801231B9234C)	0.850	1.203	-0.451	87.097	57.007	241.699	-41.40	79.45	-137.19	20.286	15.680	-34.006	-0.67691	-0.56308	-0.41687	0.22546	24.4	13111	100
2025-5-25 10:32:29.808	WT901BLE68(801231B9234C)	0.138	1.415	-0.344	52.246	110.352	343.811	-0.10	84.36	-96.60	20.286	15.680	-34.006	-0.67691	-0.56308	-0.41687	0.22546	24.4	13111	100
2025-5-25 10:32:29.841	WT901BLE68(801231B9234C)	-1.777	1.728	0.130	-7.507	143.616	387.817	69.95	81.64	-26.39	20.286	15.680	-34.006	-0.67691	-0.56308	-0.41687	0.22546	24.4	13111	100
2025-5-25 10:32:29.842	WT901BLE68(801231B9234C)	-3.785	2.475	0.966	-200.439	35.706	355.286	83.94	73.74	-9.26	20.286	15.680	-34.006	-0.67691	-0.56308	-0.41687	0.22546	24.4	13111	100
2025-5-25 10:32:29.907	WT901BLE68(801231B9234C)	-2.258	1.494	1.832	-163.147	-121.582	358.337	79.72	66.11	-8.88	20.286	15.680	-34.006	-0.64880	-0.57669	-0.32828	0.37231	24.4	13111	100
2025-5-25 10:32:29.907	WT901BLE68(801231B9234C)	-2.968	1.578	1.945	-23.865	-167.847	419.250	75.54	57.06	-12.10	20.286	15.680	-34.006	-0.64880	-0.57669	-0.32828	0.37231	24.4	13111	100
2025-5-25 10:32:29.928	WT901BLE68(801231B9234C)	-2.339	1.591	1.856	-117.554	93.201	284.119	75.85	50.40	-8.94	20.286	15.680	-34.006	-0.64880	-0.57669	-0.32828	0.37231	24.4	13111	100
2025-5-25 10:32:29.928	WT901BLE68(801231B9234C)	-2.143	0.727	1.499	-61.523	168.701	245.972	78.24	45.79	-2.94	20.286	15.680	-34.006	-0.64880	-0.57669	-0.32828	0.37231	24.4	13111	100
2025-5-25 10:32:29.959	WT901BLE68(801231B9234C)	-1.989	0.348	1.205	-62.561	244.263	206.421	81.44	42.24	3.97	20.286	15.680	-34.006	-0.64880	-0.57669	-0.32828	0.37231	24.4	13111	100
2025-5-25 10:32:29.959	WT901BLE68(801231B9234C)	-1.747	-0.147	0.904	-59.753	220.947	184.204	84.19	39.04	10.57	20.286	15.680	-34.006	-0.64880	-0.57669	-0.32828	0.37231	24.4	13111	100
2025-5-25 10:32:30.18	WT901BLE68(801231B9234C)	-1.308	-0.429	0.725	-63.599	135.925	141.846	85.34	36.46	14.82	20.286	15.680	-34.006	-0.64880	-0.57669	-0.32828	0.37231	24.4	13111	100
2025-5-25 10:32:30.18	WT901BLE68(801231B9234C)	-0.850	-0.697	0.527	-65.979	55.237	106.812	85.00	34.67	16.62	20.286	15.680	-34.006	-0.64880	-0.57669	-0.32828	0.37231	24.4	13111	100
2025-5-25 10:32:30.50	WT901BLE68(801231B9234C)	-0.473	-1.031	0.377	-61.279	2.136	77.759	83.89	33.50	16.69	20.286	15.680	-34.006	-0.64880	-0.57669	-0.32828	0.37231	24.4	13111	100
2025-5-25 10:32:30.50	WT901BLE68(801231B9234C)	-0.279	-1.321	0.254	-58.350	-6.226	47.546	82.74	32.93	16.05	20.286	15.680	-34.006	-0.64880	-0.57669	-0.32828	0.37231	24.4	13111	100
2025-5-25 10:32:30.82	WT901BLE68(801231B9234C)	-0.188	-1.552	0.181	-58.350	0.671	5.249	81.77	33.20	15.36	20.286	15.680	-34.006	-0.64880	-0.57669	-0.32828	0.37231	24.4	13111	100
2025-5-25 10:32:30.82	WT901BLE68(801231B9234C)	-0.120	-1.898	0.093	-55.359	2.991	-67.078	80.94	34.76	14.70	31.360	-10.192	-30.478	-0.64880	-0.57669	-0.32828	0.37231	24.4	13111	100
2025-5-25 10:32:30.139	WT901BLE68(801231B9234C)	-0.612	-1.764	-0.085	-20.996	7.080	-152.527	80.42	38.07	13.80	31.360	-10.192	-30.478	-0.64880	-0.57669	-0.32828	0.37231	24.4	13111	100
2025-5-25 10:32:30.139	WT901BLE68(801231B9234C)	-1.454	-1.214	0.257	18.738	64.941	-222.961	81.25	42.97	13.71	31.360	-10.192	-30.478	-0.64880	-0.57669	-0.32828	0.37231	24.4	13111	100
2025-5-25 10:32:30.167	WT901BLE68(801231B9234C)	-2.030	-0.842	0.642	31.799	125.610	-342.957	83.90	49.95	15.42	31.360	-10.192	-30.478	-0.64880	-0.57669	-0.32828	0.37231	24.4	13111	100
2025-5-25 10:32:30.168	WT901BLE68(801231B9234C)	-2.397	-0.394	0.591	53.345	70.923	-395.935	87.18	58.58	17.61	31.360	-10.192	-30.478	-0.64880	-0.57669	-0.32828	0.37231	24.4	13111	100
2025-5-25 10:32:30.198	WT901BLE68(801231B9234C)	-2.966	-0.230	0.620	58.716	-7.996	-415.649	89.02	67.44	17.53	31.360	-10.192	-30.478	-0.64880	-0.57669	-0.32828	0.37231	24.4	13111	100
2025-5-25 10:32:30.198	WT901BLE68(801231B9234C)	-3.653	-0.284	0.851	54.810	-17.334	-431.885	89.19	76.49	15.83	31.360	-10.192	-30.478	-0.64880	-0.57669	-0.32828	0.37231	24.4	13111	100
2025-5-25 10:32:30.260	WT901BLE68(801231B9234C)	-3.367	0.178	1.124	52.612	-119.751	-402.344	76.27	85.14	1.19	31.360	-10.192	-30.478	-0.64880	-0.57669	-0.32828	0.37231	24.4	13111	100
2025-5-25 10:32:30.260	WT901BLE68(801231B9234C)	-2.512	0.751	1.015	45.837	-160.034	-344.788	-25.16	85.45	-101.66	31.360	-10.192	-30.478	-0.64880	-0.57669	-0.32828	0.37231	24.4	13111	100
2025-5-25 10:32:30.288	WT901BLE68(801231B9234C)	-1.856	0.940	0.444	69.092	-111.633	-310.608	-47.56	79.51	-125.40	31.360	-10.192	-30.478	-0.64880	-0.57669	-0.32828	0.37231	24.4	13111	100
2025-5-25 10:32:30.288	WT901BLE68(801231B9234C)	-1.157	2.133	0.028	99.548	37.476	-207.031	-56.34	75.37	-136.15	31.360	-10.192	-30.478	-0.50229	-0.36102	-0.55438	0.55667	24.4	13111	100
2025-5-25 10:32:30.318	WT901BLE68(801231B9234C)	-0.926	1.008	-0.095	126.343	151.245	-157.043	-67.13	73.77	-149.23	31.360	-10.192	-30.478	-0.50229	-0.36102	-0.55438	0.55667	24.4	13111	100
2025-5-25 10:32:30.319	WT901BLE68(801231B9234C)	-0.530	0.781	-0.018	181.702	108.521	-117.981	-74.40	72.52	-159.83	31.360	-10.192	-30.478	-0.50229	-0.36102	-0.55438	0.55667	24.4	13111	100
2025-5-25 10:32:30.379	WT901BLE68(801231B9234C)	0.043	0.847	-0.011	197.754	46.509	-87.830	-75.89	71.39	-165.03	31.360	-10.192	-30.478	-0.50229	-0.36102	-0.55438	0.55667	24.4	13111	100
2025-5-25 10:32:30.380	WT901BLE68(801231B9234C)	0.600	0.980	-0.215	210.754	11.719	-65.247	-74.02	70.58	-166.87	31.360	-10.192	-30.478	-0.50229	-0.36102	-0.55438	0.55667	24.4	13111	100
2025-5-25 10:32:30.409	WT901BLE68(801231B9234C)	1.045	1.205	-0.531	200.684	-8.240	-46.936	-70.84	70.09	-167.32	31.360	-10.192	-30.478	-0.50229	-0.36102	-0.55438	0.55667	24.4	13111	100
2025-5-25 10:32:30.409	WT901BLE68(801231B9234C)	1.071	1.475	-0.783	162.415	8.179	-19.165	-68.10	70.16	-167.65	31.360	-10.192	-30.478	-0.50229	-0.36102	-0.55438	0.55667	24.4	13111	100
2025-5-25 10:32:30.440	WT901BLE68(801231B9234C)	0.633	1.105	-0.674	97.778	46.936	50.964	-67.42	71.67	-168.99	31.360	-10.192	-30.478	-0.50229	-0.36102	-0.55438	0.55667	24.4	13111	100
2025-5-25 10:32:30.440	WT901BLE68(801231B9234C)	0.390	1.138	-0.340	67.383	87.341	168.701	-67.88	75.44	-170.66	31.360	-10.192	-30.478	-0.50229	-0.36102	-0.55438	0.55667	24.4	13111	100
2025-5-25 10:32:30.499	WT901BLE68(801231B9234C)	0.208	1.472	-0.186	14.709	87.280	282.837	-67.06	81.64	-170.21	23.618	10.976	-34.496	-0.50229	-0.36102	-0.55438	0.55667	24.4	13111	100
2025-5-25 10:32:30.499	WT901BLE68(801231B9234C)	-0.902	1.560	-0.056	-47.913	45.349	367.493	-19.22	88.74	-121.51	23.618	10.976	-34.496	-0.50229	-0.36102	-0.55438	0.55667	24.4	13111	100
2025-5-25 10:32:30.528	WT901BLE68(801231B9234C)	-3.200	2.143	0.567	-144.531	30.884	378.601	83.69	82.68	-16.09	23.618	10.976	-34.496	-0.50229	-0.36102	-0.55438	0.55667	24.4	13111	100
2025-5-25 10:32:30.528	WT901BLE68(801231B9234C)	-3.270	2.224	1.654	-241.211	63.904	363.586	87.95	74.74	-7.00	23.618	10.976	-34.496	-0.50229	-0.36102	-0.55438	0.55667	24.4	13111	100
2025-5-25 10:32:30.558	WT901BLE68(801231B9234C)	-3.291	1.565	1.517	-117.920	-2.075	388.062	87.36	66.66	-3.64	23.618	10.976	-34.496	-0.50229	-0.36102	-0.55438	0.55667	24.4	13111	100
2025-5-25 10:32:30.558	WT901BLE68(801231B9234C)	-3.281	1.429	1.372	-162.048	171.570	309.814	88.42	59.57	1.28	23.618	10.976	-34.496	-0.50229	-0.36102	-0.55438	0.55667	24.4	13111	100
2025-5-25 10:32:30.618	WT901BLE68(801231B9234C)	-2.695	0.591	1.197	-128.235	225.464	250.610	91.53	53.96	9.01	23.618	10.976	-34.496	-0.50229	-0.36102	-0.55438	0.55667	24.4	13111	100
2025-5-25 10:32:30.618	WT901BLE68(801231B9234C)	-2.276	0.023	0.972	-107.971	199.463	195.435	93.92	49.44	15.39	23.618	10.976	-34.496	-0.50229	-0.36102	-0.55438	0.55667	24.4	13111	100
2025-5-25 10:32:30.650	WT901BLE68(801231B9234C)	-1.651	-0.284	0.802	-108.032	90.454	148.010	94.03	46.18	18.79	23.618	10.976	-34.496	-0.50229	-0.36102	-0.55438	0.55667	24.4	13111	100
2025-5-25 10:32:30.650	WT901BLE68(801231B9234C)	-1.057	-0.416	0.561	-106.995	6.897	103.271	91.97	44.04	19.18	23.618	10.976	-34.496	-0.50229	-0.36102	-0.55438	0.55667	24.4	13111	100
2025-5-25 10:32:30.681	WT901BLE68(801231B9234C)	-0.643	-0.574	0.254	-105.042	-13.000	84.045	89.38	42.65	18.55	23.618	10.976	-34.496	-0.50229	-0.36102	-0.55438	0.55667	24.4	13111	100
2025-5-25 10:32:30.681	WT901BLE68(801231B9234C)	-0.313	-1.024	0.112	-99.121	-11.597	77.148	86.98	41.53	17.80	23.618	10.976	-34.496	-0.70584	-0.60095	-0.34995	0.13443	24.4	13111	100
2025-5-25 10:32:30.739	WT901BLE68(801231B9234C)	0.020	-1.588	0.176	-91.370	-21.606	44.312	84.90	40.91	16.98	23.618	10.976	-34.496	-0.70584	-0.60095	-0.34995	0.13443	24.4	13111	100
2025-5-25 10:32:30.739	WT901BLE68(801231B9234C)	0.328	-1.995	0.151	-91.736	-59.753	-37.659	82.57	41.56	15.23	23.618	10.976	-34.496	-0.70584	-0.60095	-0.34995	0.13443	24.4	13111	100
2025-5-25 10:32:30.767	WT901BLE68(801231B9234C)	0.386	-2.127	-0.076	-77.087	-73.242	-115.295	79.67	43.96	12.35	23.618	10.976	-34.496	-0.70584	-0.60095	-0.34995	0.13443	24.4	13111	100
2025-5-25 10:32:30.768	WT901BLE68(801231B9234C)	0.002	-1.942	-0.168	-27.893	5.859	-146.118	78.47	47.05	10.99	23.618	10.976	-34.496	-0.70584	-0.60095	-0.34995	0.13443	24.4	13111	100
2025-5-25 10:32:30.798	WT901BLE68(801231B9234C)	-0.590	-1.275	0.121	27.893	18.127	-194.763	79.06	51.55	10.39	23.618	10.976	-34.496	-0.70584	-0.60095	-0.34995	0.13443	24.4	13111	100
2025-5-25 10:32:30.799	WT901BLE68(801231B9234C)	-1.357	-1.046	0.519	51.025	-0.549	-273.254	79.65	57.29	9.14	23.618	10.976	-34.496	-0.70584	-0.60095	-0.34995	0.13443	24.4	13111	100
2025-5-25 10:32:30.860	WT901BLE68(801231B9234C)	-2.430	-0.861	0.710	65.857	-13.672	-349.426	79.24	64.53	6.41	23.618	10.976	-34.496	-0.70584	-0.60095	-0.34995	0.13443	24.4	13111	100
2025-5-25 10:32:30.861	WT901BLE68(801231B9234C)	-4.026	-0.876	0.994	59.387	-28.870	-373.901	76.34	72.52	1.13	23.618	10.976	-34.496	-0.70584	-0.60095	-0.34995	0.13443	24.4	13111	100
2025-5-25 10:32:30.890	WT901BLE68(801231B9234C)	-4.197	-0.029	1.236	64.880	-85.083	-339.172	63.80	79.47	-13.80	23.618	10.976	-34.496	-0.70584	-0.60095	-0.34995	0.13443	24.4	13111	100
2025-5-25 10:32:30.891	WT901BLE68(801231B9234C)	-3.214	0.015	1.545	60.608	-239.136	-306.824	21.74	81.46	-58.01	29.008	8.918	-31.556	-0.70584	-0.60095	-0.34995	0.13443	24.4	13111	100
2025-5-25 10:32:30.920	WT901BLE68(801231B9234C)	-2.282	0.879	1.498	20.874	-185.486	-290.588	-12.06	77.51	-93.17	29.008	8.918	-31.556	-0.70584	-0.60095	-0.34995	0.13443	24.4	13111	100
2025-5-25 10:32:30.921	WT901BLE68(801231B9234C)	-1.483	1.314	0.777	57.068	-45.166	-284.485	-28.65	73.46	-111.04	29.008	8.918	-31.556	-0.70584	-0.60095	-0.34995	0.13443	24.4	13111	100
2025-5-25 10:32:30.979	WT901BLE68(801231B9234C)	-1.114	1.884	0.184	52.002	139.282	-202.271	-41.00	72.19	-125.17	29.008	8.918	-31.556	-0.70584	-0.60095	-0.34995	0.13443	24.4	13111	100
2025-5-25 10:32:30.979	WT901BLE68(801231B9234C)	-0.985	1.130	-0.019	77.515	209.656	-127.075	-53.91	73.10	-139.79	29.008	8.918	-31.556	-0.70584	-0.60095	-0.34995	0.13443	24.4	13111	100
2025-5-25 10:32:31.8	WT901BLE68(801231B9234C)	-0.340	0.875	0.076	127.258	125.793	-120.422	-63.90	72.94	-152.03	29.008	8.918	-31.556	-0.70584	-0.60095	-0.34995	0.13443	24.4	13111	100
2025-5-25 10:32:31.8	WT901BLE68(801231B9234C)	0.391	1.158	-0.050	149.475	36.011	-103.333	-67.36	71.94	-158.33	29.008	8.918	-31.556	-0.70584	-0.60095	-0.34995	0.13443	24.4	13111	100
2025-5-25 10:32:31.71	WT901BLE68(801231B9234C)	0.998	1.232	-0.459	161.621	0.854	-87.036	-66.55	70.80	-160.36	29.008	8.918	-31.556	-0.70584	-0.60095	-0.34995	0.13443	24.4	13111	100
2025-5-25 10:32:31.71	WT901BLE68(801231B9234C)	1.249	1.486	-0.765	143.250	6.287	-54.993	-65.06	70.17	-161.50	29.008	8.918	-31.556	-0.70584	-0.60095	-0.34995	0.13443	24.4	13111	100
2025-5-25 10:32:31.108	WT901BLE68(801231B9234C)	0.863	1.220	-0.752	93.933	49.377	18.494	-64.65	71.08	-163.08	29.008	8.918	-31.556	-0.70584	-0.60095	-0.34995	0.13443	24.4	13111	100
2025-5-25 10:32:31.109	WT901BLE68(801231B9234C)	0.518	1.178	-0.463	75.989	103.577	146.179	-65.35	74.45	-165.05	29.008	8.918	-31.556	-0.41559	-0.47754	-0.48007	0.60718	24.4	13111	100
2025-5-25 10:32:31.132	WT901BLE68(801231B9234C)	0.007	1.577	-0.313	31.616	134.949	256.042	-67.00	80.51	-167.46	29.008	8.918	-31.556	-0.41559	-0.47754	-0.48007	0.60718	24.4	13111	100
2025-5-25 10:32:31.132	WT901BLE68(801231B9234C)	-1.778	1.625	0.030	-25.757	113.647	317.505	-65.32	87.93	-165.49	29.008	8.918	-31.556	-0.41559	-0.47754	-0.48007	0.60718	24.4	13111	100
2025-5-25 10:32:31.188	WT901BLE68(801231B9234C)	-3.815	2.202	0.955	-189.148	124.512	284.729	106.25	85.76	9.07	29.008	8.918	-31.556	-0.41559	-0.47754	-0.48007	0.60718	24.4	13111	100
2025-5-25 10:32:31.189	WT901BLE68(801231B9234C)	-2.963	1.207	1.632	-224.731	94.482	309.143	107.02	78.70	15.17	29.008	8.918	-31.556	-0.41559	-0.47754	-0.48007	0.60718	24.4	13111	100
2025-5-25 10:32:31.217	WT901BLE68(801231B9234C)	-2.932	1.325	1.165	-146.301	-66.101	331.543	95.23	71.88	6.68	29.008	8.918	-31.556	-0.41559	-0.47754	-0.48007	0.60718	24.4	13111	100
2025-5-25 10:32:31.217	WT901BLE68(801231B9234C)	-2.456	0.839	1.363	-178.589	63.782	270.142	91.43	65.78	6.84	29.008	8.918	-31.556	-0.41559	-0.47754	-0.48007	0.60718	24.4	13111	100
2025-5-25 10:32:31.251	WT901BLE68(801231B9234C)	-1.942	0.278	1.152	-126.038	87.402	240.112	90.98	60.62	10.11	29.008	8.918	-31.556	-0.41559	-0.47754	-0.48007	0.60718	24.4	13111	100
2025-5-25 10:32:31.251	WT901BLE68(801231B9234C)	-1.782	-0.086	0.928	-100.220	133.972	224.304	91.81	55.98	14.01	29.008	8.918	-31.556	-0.41559	-0.47754	-0.48007	0.60718	24.4	13111	100
2025-5-25 10:32:31.309	WT901BLE68(801231B9234C)	-1.331	-0.505	0.762	-100.708	114.563	184.937	92.57	51.91	17.90	31.752	-1.078	-29.694	-0.41559	-0.47754	-0.48007	0.60718	24.4	13111	100
2025-5-25 10:32:31.310	WT901BLE68(801231B9234C)	-0.845	-0.705	0.525	-84.900	25.330	151.733	91.54	48.87	19.20	31.752	-1.078	-29.694	-0.41559	-0.47754	-0.48007	0.60718	24.4	13111	100
2025-5-25 10:32:31.339	WT901BLE68(801231B9234C)	-0.481	-1.032	0.421	-79.163	-19.958	131.470	89.42	46.49	18.55	31.752	-1.078	-29.694	-0.41559	-0.47754	-0.48007	0.60718	24.4	13111	100
2025-5-25 10:32:31.339	WT901BLE68(801231B9234C)	-0.224	-1.376	0.373	-77.637	-40.649	89.355	87.06	44.90	17.13	31.752	-1.078	-29.694	-0.41559	-0.47754	-0.48007	0.60718	24.4	13111	100
2025-5-25 10:32:31.367	WT901BLE68(801231B9234C)	0.004	-1.635	0.136	-84.961	-61.218	35.461	84.56	44.38	15.08	31.752	-1.078	-29.694	-0.41559	-0.47754	-0.48007	0.60718	24.4	13111	100
2025-5-25 10:32:31.368	WT901BLE68(801231B9234C)	0.059	-2.008	-0.100	-85.876	-77.393	-43.701	81.68	45.23	12.47	31.752	-1.078	-29.694	-0.41559	-0.47754	-0.48007	0.60718	24.4	13111	100
2025-5-25 10:32:31.429	WT901BLE68(801231B9234C)	-0.198	-2.415	-0.140	-79.468	-13.184	-88.318	79.53	47.15	10.67	31.752	-1.078	-29.694	-0.41559	-0.47754	-0.48007	0.60718	24.4	13111	100
2025-5-25 10:32:31.430	WT901BLE68(801231B9234C)	-0.946	-1.531	0.052	13.794	42.725	-137.207	79.95	50.55	10.46	31.752	-1.078	-29.694	-0.41559	-0.47754	-0.48007	0.60718	24.4	13111	100
2025-5-25 10:32:31.460	WT901BLE68(801231B9234C)	-1.782	-0.894	0.573	35.767	36.865	-216.431	81.66	55.21	10.79	31.752	-1.078	-29.694	-0.41559	-0.47754	-0.48007	0.60718	24.4	13111	100
2025-5-25 10:32:31.460	WT901BLE68(801231B9234C)	-2.304	-0.725	0.816	20.996	-21.973	-317.749	81.60	61.70	9.27	31.752	-1.078	-29.694	-0.41559	-0.47754	-0.48007	0.60718	24.4	13111	100
2025-5-25 10:32:31.490	WT901BLE68(801231B9234C)	-3.581	-0.695	0.948	23.376	-84.717	-349.121	77.28	68.97	3.28	31.752	-1.078	-29.694	-0.41559	-0.47754	-0.48007	0.60718	24.4	13111	100
2025-5-25 10:32:31.490	WT901BLE68(801231B9234C)	-3.952	-0.142	1.277	16.846	-115.051	-314.941	65.75	75.22	-10.04	31.752	-1.078	-29.694	-0.63034	-0.46902	-0.47040	0.40164	24.4	13111	100
2025-5-25 10:32:31.549	WT901BLE68(801231B9234C)	-2.978	0.234	1.554	-4.517	-213.562	-349.121	36.01	78.72	-41.04	31.752	-1.078	-29.694	-0.63034	-0.46902	-0.47040	0.40164	24.4	13111	100
2025-5-25 10:32:31.549	WT901BLE68(801231B9234C)	-2.038	0.832	1.489	6.775	-227.783	-318.909	0.66	76.08	-77.38	31.752	-1.078	-29.694	-0.63034	-0.46902	-0.47040	0.40164	24.4	13111	100
2025-5-25 10:32:31.578	WT901BLE68(801231B9234C)	-1.349	1.349	1.070	35.034	-90.759	-316.223	-18.85	72.10	-97.99	31.752	-1.078	-29.694	-0.63034	-0.46902	-0.47040	0.40164	24.4	13111	100
2025-5-25 10:32:31.578	WT901BLE68(801231B9234C)	-0.965	1.109	0.360	63.477	111.328	-225.403	-31.10	70.50	-112.17	31.752	-1.078	-29.694	-0.63034	-0.46902	-0.47040	0.40164	24.4	13111	100
2025-5-25 10:32:31.609	WT901BLE68(801231B9234C)	-0.937	1.081	0.009	85.083	235.474	-149.902	-43.65	71.99	-126.68	31.752	-1.078	-29.694	-0.63034	-0.46902	-0.47040	0.40164	24.4	13111	100
2025-5-25 10:32:31.609	WT901BLE68(801231B9234C)	-0.655	0.899	0.091	124.512	204.834	-116.699	-56.37	73.32	-142.12	31.752	-1.078	-29.694	-0.63034	-0.46902	-0.47040	0.40164	24.4	13111	100
2025-5-25 10:32:31.671	WT901BLE68(801231B9234C)	-0.025	0.900	0.122	149.292	95.581	-105.164	-64.05	73.22	-152.64	31.752	-1.078	-29.694	-0.63034	-0.46902	-0.47040	0.40164	24.4	13111	100
2025-5-25 10:32:31.671	WT901BLE68(801231B9234C)	0.602	1.129	-0.163	142.761	-5.737	-96.252	-64.91	72.17	-156.17	31.752	-1.078	-29.694	-0.63034	-0.46902	-0.47040	0.40164	24.4	13111	100
2025-5-25 10:32:31.708	WT901BLE68(801231B9234C)	1.033	1.183	-0.578	151.184	-16.479	-97.961	-63.09	70.93	-157.05	31.752	-1.078	-29.694	-0.63034	-0.46902	-0.47040	0.40164	24.4	13111	100
2025-5-25 10:32:31.708	WT901BLE68(801231B9234C)	0.948	1.373	-0.802	139.526	-4.761	-80.750	-61.81	69.98	-158.37	18.424	14.896	-34.594	-0.63034	-0.46902	-0.47040	0.40164	24.4	13111	100
2025-5-25 10:32:31.731	WT901BLE68(801231B9234C)	0.609	1.077	-0.697	97.534	30.151	7.568	-60.86	70.48	-159.40	18.424	14.896	-34.594	-0.63034	-0.46902	-0.47040	0.40164	24.4	13111	100
2025-5-25 10:32:31.731	WT901BLE68(801231B9234C)	0.445	1.029	-0.349	71.960	87.952	137.756	-59.97	73.70	-159.80	18.424	14.896	-34.594	-0.63034	-0.46902	-0.47040	0.40164	24.4	13111	100
2025-5-25 10:32:31.788	WT901BLE68(801231B9234C)	0.252	1.352	-0.231	30.945	107.300	250.000	-56.82	79.38	-157.24	18.424	14.896	-34.594	-0.63034	-0.46902	-0.47040	0.40164	24.4	13111	100
2025-5-25 10:32:31.789	WT901BLE68(801231B9234C)	-0.868	1.413	0.126	-13.977	97.595	315.125	-34.29	86.14	-134.40	18.424	14.896	-34.594	-0.63034	-0.46902	-0.47040	0.40164	24.4	13111	100
2025-5-25 10:32:31.818	WT901BLE68(801231B9234C)	-2.885	1.909	0.776	-121.643	29.419	327.393	65.20	85.07	-32.85	18.424	14.896	-34.594	-0.63034	-0.46902	-0.47040	0.40164	24.4	13111	100
2025-5-25 10:32:31.818	WT901BLE68(801231B9234C)	-2.844	1.821	1.819	-229.614	8.423	257.263	77.83	79.26	-15.77	18.424	14.896	-34.594	-0.63034	-0.46902	-0.47040	0.40164	24.4	13111	100
2025-5-25 10:32:31.849	WT901BLE68(801231B9234C)	-2.582	1.205	1.864	-120.117	-62.012	314.575	77.51	72.93	-12.27	18.424	14.896	-34.594	-0.63034	-0.46902	-0.47040	0.40164	24.4	13111	100
2025-5-25 10:32:31.849	WT901BLE68(801231B9234C)	-3.499	1.227	1.951	-214.294	169.861	318.115	80.49	66.14	-5.20	18.424	14.896	-34.594	-0.63034	-0.46902	-0.47040	0.40164	24.4	13111	100
2025-5-25 10:32:31.908	WT901BLE68(801231B9234C)	-2.710	0.467	2.066	-218.384	235.352	286.316	85.65	60.60	6.38	18.424	14.896	-34.594	-0.63034	-0.46902	-0.47040	0.40164	24.4	13111	100
2025-5-25 10:32:31.909	WT901BLE68(801231B9234C)	-2.190	-0.066	1.906	-206.604	195.679	217.529	88.10	55.80	14.65	18.424	14.896	-34.594	-0.63034	-0.46902	-0.47040	0.40164	24.4	13111	100
2025-5-25 10:32:31.941	WT901BLE68(801231B9234C)	-1.629	-0.669	1.670	-217.529	93.567	124.207	87.06	52.72	19.14	18.424	14.896	-34.594	-0.68985	-0.56015	-0.41626	0.19226	24.4	13111	100
2025-5-25 10:32:31.941	WT901BLE68(801231B9234C)	-1.208	-0.840	1.333	-247.681	-51.636	45.166	81.88	51.41	19.03	18.424	14.896	-34.594	-0.68985	-0.56015	-0.41626	0.19226	24.4	13111	100
2025-5-25 10:32:31.970	WT901BLE68(801231B9234C)	-1.063	-0.785	0.684	-276.978	-114.624	-3.662	73.55	50.97	15.60	18.424	14.896	-34.594	-0.68985	-0.56015	-0.41626	0.19226	24.4	13111	100
2025-5-25 10:32:31.970	WT901BLE68(801231B9234C)	-1.081	-1.047	0.164	-305.847	-52.490	-58.228	64.94	51.28	12.35	18.424	14.896	-34.594	-0.68985	-0.56015	-0.41626	0.19226	24.4	13111	100
2025-5-25 10:32:32.29	WT901BLE68(801231B9234C)	-1.321	-1.223	-0.004	-307.251	-28.015	-188.782	56.09	53.70	8.85	18.424	14.896	-34.594	-0.68985	-0.56015	-0.41626	0.19226	24.4	13111	100
2025-5-25 10:32:32.29	WT901BLE68(801231B9234C)	-1.169	-1.034	-0.146	-279.602	-113.159	-323.547	42.97	57.28	-0.35	18.424	14.896	-34.594	-0.68985	-0.56015	-0.41626	0.19226	24.4	13111	100
2025-5-25 10:32:32.61	WT901BLE68(801231B9234C)	-0.907	-0.782	-0.190	-238.281	-135.254	-419.861	24.87	59.76	-16.03	18.424	14.896	-34.594	-0.68985	-0.56015	-0.41626	0.19226	24.4	13111	100
2025-5-25 10:32:32.61	WT901BLE68(801231B9234C)	-0.807	-0.773	-0.140	-187.805	-88.135	-500.122	3.86	60.25	-35.80	18.424	14.896	-34.594	-0.68985	-0.56015	-0.41626	0.19226	24.4	13111	100
2025-5-25 10:32:32.91	WT901BLE68(801231B9234C)	-1.429	-0.923	0.449	-113.892	-15.564	-575.500	-17.20	58.63	-57.06	18.424	14.896	-34.594	-0.68985	-0.56015	-0.41626	0.19226	24.4	13111	100
2025-5-25 10:32:32.91	WT901BLE68(801231B9234C)	-1.688	-0.650	0.803	-96.924	-59.937	-598.938	-34.48	52.97	-75.66	17.052	29.890	-22.246	-0.68985	-0.56015	-0.41626	0.19226	24.4	13111	100
2025-5-25 10:32:32.149	WT901BLE68(801231B9234C)	-0.634	-0.802	0.516	-126.587	-133.972	-582.886	-45.55	43.85	-87.22	17.052	29.890	-22.246	-0.68985	-0.56015	-0.41626	0.19226	24.4	13111	100
2025-5-25 10:32:32.150	WT901BLE68(801231B9234C)	0.034	-1.345	0.696	-146.545	-51.819	-432.983	-52.66	34.79	-93.93	17.052	29.890	-22.246	-0.68985	-0.56015	-0.41626	0.19226	24.4	13111	100
2025-5-25 10:32:32.178	WT901BLE68(801231B9234C)	-0.518	-2.126	0.709	-108.032	86.853	-482.483	-58.88	27.14	-100.62	17.052	29.890	-22.246	-0.68985	-0.56015	-0.41626	0.19226	24.4	13111	100
2025-5-25 10:32:32.178	WT901BLE68(801231B9234C)	-1.145	-1.439	0.461	-32.959	171.204	-464.478	-63.17	20.50	-108.39	17.052	29.890	-22.246	-0.68985	-0.56015	-0.41626	0.19226	24.4	13111	100
2025-5-25 10:32:32.209	WT901BLE68(801231B9234C)	-0.667	-0.505	0.540	-15.686	139.526	-390.503	-65.62	14.58	-114.87	17.052	29.890	-22.246	-0.68985	-0.56015	-0.41626	0.19226	24.4	13111	100
2025-5-25 10:32:32.209	WT901BLE68(801231B9234C)	0.093	0.026	0.645	-8.423	90.637	-276.062	-66.86	9.96	-119.27	17.052	29.890	-22.246	-0.68985	-0.56015	-0.41626	0.19226	24.4	13111	100
2025-5-25 10:32:32.271	WT901BLE68(801231B9234C)	-0.042	0.262	0.677	17.456	127.563	-150.574	-67.28	7.64	-122.39	17.052	29.890	-22.246	-0.68985	-0.56015	-0.41626	0.19226	24.4	13111	100
2025-5-25 10:32:32.271	WT901BLE68(801231B9234C)	-0.273	0.440	0.748	51.575	153.076	-148.010	-66.87	6.74	-125.87	17.052	29.890	-22.246	-0.68985	-0.56015	-0.41626	0.19226	24.4	13111	100
2025-5-25 10:32:32.308	WT901BLE68(801231B9234C)	-0.170	0.658	0.513	75.256	114.502	-160.217	-65.78	5.35	-129.10	17.052	29.890	-22.246	-0.68985	-0.56015	-0.41626	0.19226	24.4	13111	100
2025-5-25 10:32:32.308	WT901BLE68(801231B9234C)	-0.303	0.545	0.176	63.599	63.843	-133.057	-64.36	4.01	-131.31	17.052	29.890	-22.246	-0.35822	0.19208	-0.48724	0.77283	24.4	13111	100
2025-5-25 10:32:32.331	WT901BLE68(801231B9234C)	-0.487	0.388	0.106	61.829	39.063	-80.200	-62.94	3.31	-132.64	17.052	29.890	-22.246	-0.35822	0.19208	-0.48724	0.77283	24.4	13111	100
2025-5-25 10:32:32.331	WT901BLE68(801231B9234C)	-0.230	0.451	0.137	41.809	38.574	-29.785	-61.68	3.61	-133.43	17.052	29.890	-22.246	-0.35822	0.19208	-0.48724	0.77283	24.4	13111	100
2025-5-25 10:32:32.388	WT901BLE68(801231B9234C)	0.090	0.378	0.078	26.550	63.477	20.203	-60.79	4.86	-133.87	17.052	29.890	-22.246	-0.35822	0.19208	-0.48724	0.77283	24.4	13111	100
2025-5-25 10:32:32.389	WT901BLE68(801231B9234C)	-0.314	0.115	0.298	35.950	140.625	63.843	-59.90	7.63	-134.96	17.052	29.890	-22.246	-0.35822	0.19208	-0.48724	0.77283	24.4	13111	100
2025-5-25 10:32:32.418	WT901BLE68(801231B9234C)	-0.496	-0.453	0.717	45.166	156.372	85.205	-58.95	11.33	-136.40	17.052	29.890	-22.246	-0.35822	0.19208	-0.48724	0.77283	24.4	13111	100
2025-5-25 10:32:32.418	WT901BLE68(801231B9234C)	0.074	-0.797	0.941	56.152	55.420	77.148	-57.83	14.19	-136.82	17.052	29.890	-22.246	-0.35822	0.19208	-0.48724	0.77283	24.4	13111	100
2025-5-25 10:32:32.448	WT901BLE68(801231B9234C)	0.254	-0.562	1.385	91.797	-4.456	84.534	-55.70	16.14	-135.47	17.052	29.890	-22.246	-0.35822	0.19208	-0.48724	0.77283	24.4	13111	100
2025-5-25 10:32:32.448	WT901BLE68(801231B9234C)	0.144	-0.977	1.544	75.989	-13.977	89.539	-53.31	17.45	-133.58	17.052	29.890	-22.246	-0.35822	0.19208	-0.48724	0.77283	24.4	13111	100
2025-5-25 10:32:32.509	WT901BLE68(801231B9234C)	0.293	-1.416	1.725	77.759	15.076	70.007	-51.19	18.80	-132.13	17.052	29.890	-22.246	-0.35822	0.19208	-0.48724	0.77283	24.4	13111	100
2025-5-25 10:32:32.509	WT901BLE68(801231B9234C)	0.338	-0.993	1.574	68.542	23.926	93.567	-49.14	20.42	-130.74	17.052	29.890	-22.246	-0.35822	0.19208	-0.48724	0.77283	24.4	13111	100
2025-5-25 10:32:32.541	WT901BLE68(801231B9234C)	0.238	-0.294	1.346	53.223	26.917	97.961	-47.29	22.07	-129.32	-27.538	14.308	-33.418	-0.35822	0.19208	-0.48724	0.77283	24.4	13111	100
2025-5-25 10:32:32.541	WT901BLE68(801231B9234C)	0.045	-0.208	1.337	39.612	6.348	103.027	-45.59	23.53	-127.53	-27.538	14.308	-33.418	-0.35822	0.19208	-0.48724	0.77283	24.4	13111	100
2025-5-25 10:32:32.598	WT901BLE68(801231B9234C)	0.101	-0.210	1.277	34.973	-10.925	111.206	-43.74	24.76	-125.26	-27.538	14.308	-33.418	-0.35822	0.19208	-0.48724	0.77283	24.4	13111	100
2025-5-25 10:32:32.599	WT901BLE68(801231B9234C)	-0.150	-0.107	0.751	23.132	-21.912	100.525	-41.96	25.70	-122.66	-27.538	14.308	-33.418	-0.35822	0.19208	-0.48724	0.77283	24.4	13111	100
2025-5-25 10:32:32.628	WT901BLE68(801231B9234C)	0.013	-0.216	0.235	7.751	-48.645	74.585	-40.49	26.02	-120.23	-27.538	14.308	-33.418	-0.35822	0.19208	-0.48724	0.77283	24.4	13111	100
2025-5-25 10:32:32.628	WT901BLE68(801231B9234C)	0.150	-0.495	-0.131	-6.104	-91.614	50.049	-39.28	25.37	-117.68	-27.538	14.308	-33.418	-0.35822	0.19208	-0.48724	0.77283	24.4	13111	100
2025-5-25 10:32:32.658	WT901BLE68(801231B9234C)	0.333	-0.314	-0.055	8.667	-84.045	15.503	-38.27	24.11	-115.70	-27.538	14.308	-33.418	-0.35822	0.19208	-0.48724	0.77283	24.4	13111	100
2025-5-25 10:32:32.658	WT901BLE68(801231B9234C)	0.825	0.046	0.148	-16.907	-106.384	-27.222	-37.83	22.10	-114.41	-27.538	14.308	-33.418	-0.35822	0.19208	-0.48724	0.77283	24.4	13111	100
2025-5-25 10:32:32.719	WT901BLE68(801231B9234C)	1.198	0.112	0.268	-56.396	-112.305	-71.289	-38.28	19.24	-113.57	-27.538	14.308	-33.418	-0.35822	0.19208	-0.48724	0.77283	24.4	13111	100
2025-5-25 10:32:32.719	WT901BLE68(801231B9234C)	0.912	-0.148	0.241	-73.853	-20.691	-102.234	-39.52	16.68	-113.67	-27.538	14.308	-33.418	-0.35822	0.19208	-0.48724	0.77283	24.4	13111	100
2025-5-25 10:32:32.748	WT901BLE68(801231B9234C)	0.218	-0.732	0.387	-55.481	85.388	-130.371	-42.07	15.67	-117.54	-27.538	14.308	-33.418	-0.51208	0.07834	-0.36841	0.77188	24.4	13111	100
2025-5-25 10:32:32.748	WT901BLE68(801231B9234C)	0.550	-1.033	0.642	-51.819	66.956	-156.677	-44.40	14.30	-121.69	-27.538	14.308	-33.418	-0.51208	0.07834	-0.36841	0.77188	24.4	13111	100
2025-5-25 10:32:32.778	WT901BLE68(801231B9234C)	1.552	-0.774	1.155	-81.482	-21.057	-171.753	-46.39	11.49	-124.57	-27.538	14.308	-33.418	-0.51208	0.07834	-0.36841	0.77188	24.4	13111	100
2025-5-25 10:32:32.778	WT901BLE68(801231B9234C)	0.778	-1.496	1.481	-64.331	45.837	-142.944	-48.16	8.92	-126.98	-27.538	14.308	-33.418	-0.51208	0.07834	-0.36841	0.77188	24.4	13111	100
2025-5-25 10:32:32.839	WT901BLE68(801231B9234C)	0.322	-1.842	1.487	-44.861	154.480	-146.118	-49.66	7.93	-130.82	-27.538	14.308	-33.418	-0.51208	0.07834	-0.36841	0.77188	24.4	13111	100
2025-5-25 10:32:32.839	WT901BLE68(801231B9234C)	-0.294	-1.661	1.171	-31.982	162.476	-149.292	-50.98	7.30	-135.29	-27.538	14.308	-33.418	-0.51208	0.07834	-0.36841	0.77188	24.4	13111	100
2025-5-25 10:32:32.870	WT901BLE68(801231B9234C)	-0.916	-1.127	1.078	-0.793	138.428	-145.386	-51.66	6.55	-139.45	-27.538	14.308	-33.418	-0.51208	0.07834	-0.36841	0.77188	24.4	13111	100
2025-5-25 10:32:32.871	WT901BLE68(801231B9234C)	-0.493	-0.777	1.462	36.926	102.295	-121.643	-51.40	5.80	-142.79	-27.538	14.308	-33.418	-0.51208	0.07834	-0.36841	0.77188	24.4	13111	100
2025-5-25 10:32:32.908	WT901BLE68(801231B9234C)	-0.681	-0.004	1.933	35.522	65.369	-64.087	-50.64	5.28	-144.78	-27.538	14.308	-33.418	-0.51208	0.07834	-0.36841	0.77188	24.4	13111	100
2025-5-25 10:32:32.908	WT901BLE68(801231B9234C)	-0.398	0.202	0.946	-6.897	-38.879	-96.680	-50.36	4.02	-145.52	-26.558	8.526	-35.574	-0.51208	0.07834	-0.36841	0.77188	24.4	13111	100
2025-5-25 10:32:32.962	WT901BLE68(801231B9234C)	-0.312	-0.043	0.081	1.221	-116.272	-86.426	-50.23	1.45	-144.85	-26.558	8.526	-35.574	-0.51208	0.07834	-0.36841	0.77188	24.4	13111	100
2025-5-25 10:32:32.962	WT901BLE68(801231B9234C)	-0.441	0.132	-0.240	24.658	-95.215	-47.729	-49.70	-0.73	-143.65	-26.558	8.526	-35.574	-0.51208	0.07834	-0.36841	0.77188	24.4	13111	100
2025-5-25 10:32:32.990	WT901BLE68(801231B9234C)	-0.048	0.339	-0.113	28.076	-78.186	-15.076	-48.97	-1.97	-142.42	-26.558	8.526	-35.574	-0.51208	0.07834	-0.36841	0.77188	24.4	13111	100
2025-5-25 10:32:32.990	WT901BLE68(801231B9234C)	0.463	0.431	0.358	2.502	-71.106	23.560	-48.54	-2.47	-140.81	-26.558	8.526	-35.574	-0.51208	0.07834	-0.36841	0.77188	24.4	13111	100
2025-5-25 10:32:33.20	WT901BLE68(801231B9234C)	0.197	0.204	0.572	-9.827	-15.259	49.194	-48.46	-2.10	-139.17	-26.558	8.526	-35.574	-0.51208	0.07834	-0.36841	0.77188	24.4	13111	100
2025-5-25 10:32:33.20	WT901BLE68(801231B9234C)	-0.625	-0.417	0.518	3.845	73.853	66.772	-48.12	-0.35	-138.54	-26.558	8.526	-35.574	-0.51208	0.07834	-0.36841	0.77188	24.4	13111	100
2025-5-25 10:32:33.82	WT901BLE68(801231B9234C)	-0.546	-0.814	0.437	43.701	108.826	93.689	-47.29	2.32	-138.47	-26.558	8.526	-35.574	-0.51208	0.07834	-0.36841	0.77188	24.4	13111	100
2025-5-25 10:32:33.82	WT901BLE68(801231B9234C)	0.271	-0.426	1.555	71.106	45.776	139.771	-45.84	5.32	-137.49	-26.558	8.526	-35.574	-0.51208	0.07834	-0.36841	0.77188	24.4	13111	100
2025-5-25 10:32:33.110	WT901BLE68(801231B9234C)	0.716	-0.689	2.342	32.715	-68.054	92.712	-44.40	6.64	-135.05	-26.558	8.526	-35.574	-0.51208	0.07834	-0.36841	0.77188	24.4	13111	100
2025-5-25 10:32:33.110	WT901BLE68(801231B9234C)	0.451	-1.298	2.123	16.296	-24.292	100.342	-43.47	7.16	-132.69	-26.558	8.526	-35.574	-0.40683	0.08905	-0.35455	0.83710	24.4	13111	100
2025-5-25 10:32:33.141	WT901BLE68(801231B9234C)	0.238	-1.203	1.405	37.109	50.232	138.611	-42.52	9.19	-130.85	-26.558	8.526	-35.574	-0.40683	0.08905	-0.35455	0.83710	24.4	13111	100
2025-5-25 10:32:33.141	WT901BLE68(801231B9234C)	-0.013	-0.510	1.200	73.303	51.270	142.822	-40.93	11.68	-129.29	-26.558	8.526	-35.574	-0.40683	0.08905	-0.35455	0.83710	24.4	13111	100
2025-5-25 10:32:33.198	WT901BLE68(801231B9234C)	0.389	-0.191	1.563	69.885	-23.865	123.840	-38.79	13.33	-127.14	-26.558	8.526	-35.574	-0.40683	0.08905	-0.35455	0.83710	24.4	13111	100
2025-5-25 10:32:33.199	WT901BLE68(801231B9234C)	0.692	-0.163	1.575	36.438	-83.435	139.282	-36.93	13.64	-123.92	-26.558	8.526	-35.574	-0.40683	0.08905	-0.35455	0.83710	24.4	13111	100
2025-5-25 10:32:33.228	WT901BLE68(801231B9234C)	0.285	0.141	1.236	13.367	-43.030	160.278	-35.49	14.21	-120.34	-26.558	8.526	-35.574	-0.40683	0.08905	-0.35455	0.83710	24.4	13111	100
2025-5-25 10:32:33.228	WT901BLE68(801231B9234C)	-0.026	0.076	0.569	-8.606	-32.166	145.386	-34.49	15.14	-117.04	-26.558	8.526	-35.574	-0.40683	0.08905	-0.35455	0.83710	24.4	13111	100
2025-5-25 10:32:33.258	WT901BLE68(801231B9234C)	-0.025	-0.107	0.003	-30.762	-52.917	123.474	-33.88	15.64	-113.88	-26.558	8.526	-35.574	-0.40683	0.08905	-0.35455	0.83710	24.4	13111	100
2025-5-25 10:32:33.259	WT901BLE68(801231B9234C)	-0.022	-0.102	-0.211	-28.076	-75.928	99.976	-33.51	15.44	-110.89	-26.558	8.526	-35.574	-0.40683	0.08905	-0.35455	0.83710	24.4	13111	100
2025-5-25 10:32:33.319	WT901BLE68(801231B9234C)	-0.045	0.062	0.072	-37.659	-117.371	56.396	-33.31	14.40	-108.25	-26.558	8.526	-35.574	-0.40683	0.08905	-0.35455	0.83710	24.4	13111	100
2025-5-25 10:32:33.319	WT901BLE68(801231B9234C)	0.098	0.197	0.014	-80.261	-232.361	5.737	-33.73	11.33	-105.38	-26.558	8.526	-35.574	-0.40683	0.08905	-0.35455	0.83710	24.4	13111	100
2025-5-25 10:32:33.348	WT901BLE68(801231B9234C)	0.262	0.263	-0.108	-159.729	-371.826	-31.250	-35.52	5.69	-101.60	-29.890	14.112	-32.046	-0.40683	0.08905	-0.35455	0.83710	24.4	13111	100
2025-5-25 10:32:33.348	WT901BLE68(801231B9234C)	0.438	0.088	-0.359	-236.755	-439.819	-84.961	-39.14	-1.86	-97.05	-29.890	14.112	-32.046	-0.40683	0.08905	-0.35455	0.83710	24.4	13111	100
2025-5-25 10:32:33.379	WT901BLE68(801231B9234C)	0.620	-0.271	-0.372	-297.302	-447.144	-133.179	-44.64	-10.15	-92.30	-29.890	14.112	-32.046	-0.40683	0.08905	-0.35455	0.83710	24.4	13111	100
2025-5-25 10:32:33.379	WT901BLE68(801231B9234C)	1.437	-0.540	-0.609	-361.877	-537.964	-144.226	-53.01	-19.18	-86.51	-29.890	14.112	-32.046	-0.40683	0.08905	-0.35455	0.83710	24.4	13111	100
2025-5-25 10:32:33.439	WT901BLE68(801231B9234C)	1.693	-1.083	-0.807	-374.329	-446.472	-135.193	-64.17	-26.86	-79.67	-29.890	14.112	-32.046	-0.40683	0.08905	-0.35455	0.83710	24.4	13111	100
2025-5-25 10:32:33.439	WT901BLE68(801231B9234C)	1.151	-1.655	-0.894	-290.588	-164.795	-164.978	-73.47	-31.89	-75.63	-29.890	14.112	-32.046	-0.40683	0.08905	-0.35455	0.83710	24.4	13111	100
2025-5-25 10:32:33.469	WT901BLE68(801231B9234C)	1.879	-1.631	-0.793	-238.892	-16.846	-221.191	-78.98	-35.95	-76.05	-29.890	14.112	-32.046	-0.40683	0.08905	-0.35455	0.83710	24.4	13111	100
2025-5-25 10:32:33.469	WT901BLE68(801231B9234C)	2.717	-1.478	-0.595	-207.214	-30.029	-224.854	-83.49	-40.52	-76.70	-29.890	14.112	-32.046	-0.40683	0.08905	-0.35455	0.83710	24.4	13111	100
2025-5-25 10:32:33.498	WT901BLE68(801231B9234C)	3.705	-1.174	-0.082	-148.193	-119.141	-193.909	-88.56	-44.70	-75.03	-29.890	14.112	-32.046	-0.40683	0.08905	-0.35455	0.83710	24.4	13111	100
2025-5-25 10:32:33.498	WT901BLE68(801231B9234C)	1.872	-1.187	-0.212	-106.445	-176.758	-178.955	-95.38	-48.52	-69.60	-29.890	14.112	-32.046	-0.40683	0.08905	-0.35455	0.83710	24.4	13111	100
2025-5-25 10:32:33.559	WT901BLE68(801231B9234C)	1.692	-0.407	0.229	4.089	-110.779	-28.931	-98.98	-49.76	-65.26	-29.890	14.112	-32.046	-0.32538	0.73071	-0.12994	0.58582	24.4	13111	100
2025-5-25 10:32:33.560	WT901BLE68(801231B9234C)	1.504	-0.475	0.457	49.988	32.104	9.277	-99.20	-50.02	-63.91	-29.890	14.112	-32.046	-0.32538	0.73071	-0.12994	0.58582	24.4	13111	100
2025-5-25 10:32:33.588	WT901BLE68(801231B9234C)	0.055	-0.468	0.478	110.840	243.896	23.438	-93.31	-50.22	-68.90	-29.890	14.112	-32.046	-0.32538	0.73071	-0.12994	0.58582	24.4	13111	100
2025-5-25 10:32:33.588	WT901BLE68(801231B9234C)	-1.459	-0.079	0.404	101.257	318.298	18.494	-83.56	-49.62	-78.26	-29.890	14.112	-32.046	-0.32538	0.73071	-0.12994	0.58582	24.4	13111	100
2025-5-25 10:32:33.618	WT901BLE68(801231B9234C)	-1.931	-0.164	0.458	19.836	162.170	-55.603	-76.94	-49.51	-85.26	-29.890	14.112	-32.046	-0.32538	0.73071	-0.12994	0.58582	24.4	13111	100
2025-5-25 10:32:33.618	WT901BLE68(801231B9234C)	-0.127	-0.086	0.634	50.293	-121.704	-52.185	-76.33	-50.81	-85.09	-29.890	14.112	-32.046	-0.32538	0.73071	-0.12994	0.58582	24.4	13111	100
2025-5-25 10:32:33.681	WT901BLE68(801231B9234C)	1.010	-0.042	0.253	65.552	-253.296	18.372	-80.61	-51.52	-77.78	-29.890	14.112	-32.046	-0.32538	0.73071	-0.12994	0.58582	24.4	13111	100
2025-5-25 10:32:33.682	WT901BLE68(801231B9234C)	1.138	-0.275	0.265	71.411	-111.267	-28.503	-83.36	-51.92	-72.25	-29.890	14.112	-32.046	-0.32538	0.73071	-0.12994	0.58582	24.4	13111	100
2025-5-25 10:32:33.711	WT901BLE68(801231B9234C)	0.910	-0.542	0.489	104.492	33.813	-31.189	-81.38	-52.61	-71.96	-29.890	14.112	-32.046	-0.32538	0.73071	-0.12994	0.58582	24.4	13111	100
2025-5-25 10:32:33.711	WT901BLE68(801231B9234C)	1.585	-0.055	0.269	103.760	43.945	-16.235	-77.38	-52.69	-73.89	-44.590	-3.234	19.992	-0.32538	0.73071	-0.12994	0.58582	24.4	13111	100
2025-5-25 10:32:33.741	WT901BLE68(801231B9234C)	2.049	0.089	-0.141	104.919	-34.912	-35.522	-75.13	-53.25	-73.76	-44.590	-3.234	19.992	-0.32538	0.73071	-0.12994	0.58582	24.4	13111	100
2025-5-25 10:32:33.741	WT901BLE68(801231B9234C)	2.156	-0.777	-0.155	127.686	-39.551	-39.612	-73.33	-54.57	-72.61	-44.590	-3.234	19.992	-0.32538	0.73071	-0.12994	0.58582	24.4	13111	100
2025-5-25 10:32:33.798	WT901BLE68(801231B9234C)	1.910	-0.891	-0.263	135.315	6.714	7.507	-71.16	-55.05	-71.88	-44.590	-3.234	19.992	-0.32538	0.73071	-0.12994	0.58582	24.4	13111	100
2025-5-25 10:32:33.799	WT901BLE68(801231B9234C)	1.957	0.023	-0.262	114.868	54.688	17.334	-67.80	-54.67	-72.88	-44.590	-3.234	19.992	-0.32538	0.73071	-0.12994	0.58582	24.4	13111	100
2025-5-25 10:32:33.827	WT901BLE68(801231B9234C)	1.478	0.210	-0.088	128.845	46.570	8.911	-64.20	-54.28	-74.04	-44.590	-3.234	19.992	-0.32538	0.73071	-0.12994	0.58582	24.4	13111	100
2025-5-25 10:32:33.828	WT901BLE68(801231B9234C)	1.076	-0.364	0.019	142.761	30.823	33.813	-60.91	-53.92	-74.60	-44.590	-3.234	19.992	-0.32538	0.73071	-0.12994	0.58582	24.4	13111	100
2025-5-25 10:32:33.858	WT901BLE68(801231B9234C)	0.697	-0.212	0.237	138.428	-3.723	59.937	-58.58	-53.26	-73.69	-44.590	-3.234	19.992	-0.32538	0.73071	-0.12994	0.58582	24.4	13111	100
2025-5-25 10:32:33.858	WT901BLE68(801231B9234C)	0.170	0.036	0.101	103.088	-5.920	65.125	-57.29	-52.56	-72.14	-44.590	-3.234	19.992	-0.32538	0.73071	-0.12994	0.58582	24.4	13111	100
2025-5-25 10:32:33.918	WT901BLE68(801231B9234C)	-0.233	-0.231	-0.283	76.843	-26.367	68.665	-56.94	-51.98	-70.22	-44.590	-3.234	19.992	-0.32538	0.73071	-0.12994	0.58582	24.4	13111	100
2025-5-25 10:32:33.919	WT901BLE68(801231B9234C)	-0.373	-0.235	-0.631	65.613	-48.035	54.993	-57.48	-51.77	-67.71	-44.590	-3.234	19.992	-0.32538	0.73071	-0.12994	0.58582	24.4	13111	100
2025-5-25 10:32:33.948	WT901BLE68(801231B9234C)	-0.122	0.098	-0.619	44.128	-44.861	25.208	-58.26	-51.95	-65.45	-44.590	-3.234	19.992	-0.54529	0.57361	0.09189	0.60422	24.4	13111	100
2025-5-25 10:32:33.948	WT901BLE68(801231B9234C)	0.628	0.364	-0.471	-13.123	-43.274	-12.512	-59.70	-52.77	-63.98	-44.590	-3.234	19.992	-0.54529	0.57361	0.09189	0.60422	24.4	13111	100
2025-5-25 10:32:34.8	WT901BLE68(801231B9234C)	1.142	0.309	-0.551	-63.843	-45.776	-10.132	-62.08	-53.39	-62.97	-44.590	-3.234	19.992	-0.54529	0.57361	0.09189	0.60422	24.4	13111	100
2025-5-25 10:32:34.9	WT901BLE68(801231B9234C)	0.941	0.094	-0.669	-74.219	5.371	5.798	-63.11	-54.02	-61.96	-44.590	-3.234	19.992	-0.54529	0.57361	0.09189	0.60422	24.4	13111	100
2025-5-25 10:32:34.38	WT901BLE68(801231B9234C)	0.535	-0.238	-0.688	-83.618	80.261	29.053	-62.77	-53.55	-62.74	-44.590	-3.234	19.992	-0.54529	0.57361	0.09189	0.60422	24.4	13111	100
2025-5-25 10:32:34.38	WT901BLE68(801231B9234C)	0.700	-0.538	-0.390	-100.830	95.703	0.671	-62.99	-52.31	-65.56	-44.590	-3.234	19.992	-0.54529	0.57361	0.09189	0.60422	24.4	13111	100
2025-5-25 10:32:34.68	WT901BLE68(801231B9234C)	2.322	-0.491	-0.083	-140.930	-2.502	-19.714	-65.57	-52.24	-67.00	-44.590	-3.234	19.992	-0.54529	0.57361	0.09189	0.60422	24.4	13111	100
2025-5-25 10:32:34.69	WT901BLE68(801231B9234C)	2.708	-0.749	-0.235	-156.372	-47.852	-12.939	-70.26	-53.24	-65.67	-44.590	-3.234	19.992	-0.54529	0.57361	0.09189	0.60422	24.4	13111	100
2025-5-25 10:32:34.129	WT901BLE68(801231B9234C)	1.817	-1.242	-0.229	-163.757	84.534	16.296	-73.07	-53.17	-66.19	-44.590	-3.234	19.992	-0.54529	0.57361	0.09189	0.60422	24.4	13111	100
2025-5-25 10:32:34.129	WT901BLE68(801231B9234C)	1.945	-1.280	0.066	-159.363	92.407	14.709	-74.18	-52.55	-68.96	-44.590	-3.234	19.992	-0.54529	0.57361	0.09189	0.60422	24.4	13111	100
2025-5-25 10:32:34.157	WT901BLE68(801231B9234C)	1.985	-0.924	0.318	-149.536	40.161	25.085	-76.02	-52.04	-70.30	-44.296	3.038	20.874	-0.54529	0.57361	0.09189	0.60422	24.4	13111	100
2025-5-25 10:32:34.158	WT901BLE68(801231B9234C)	1.250	-0.901	0.503	-128.052	58.594	11.719	-77.88	-51.60	-71.26	-44.296	3.038	20.874	-0.54529	0.57361	0.09189	0.60422	24.4	13111	100
2025-5-25 10:32:34.188	WT901BLE68(801231B9234C)	1.094	-0.807	-0.156	-95.581	53.162	-10.925	-78.18	-51.46	-73.10	-44.296	3.038	20.874	-0.54529	0.57361	0.09189	0.60422	24.4	13111	100
2025-5-25 10:32:34.188	WT901BLE68(801231B9234C)	0.225	-0.570	0.413	-14.648	47.058	-9.216	-77.99	-51.64	-74.12	-44.296	3.038	20.874	-0.54529	0.57361	0.09189	0.60422	24.4	13111	100
2025-5-25 10:32:34.249	WT901BLE68(801231B9234C)	-0.630	-0.086	0.506	-18.555	70.251	-29.663	-76.75	-52.00	-75.95	-44.296	3.038	20.874	-0.54529	0.57361	0.09189	0.60422	24.4	13111	100
2025-5-25 10:32:34.250	WT901BLE68(801231B9234C)	-1.163	-0.077	0.625	-44.067	84.229	-70.740	-74.97	-52.70	-78.81	-44.296	3.038	20.874	-0.54529	0.57361	0.09189	0.60422	24.4	13111	100
2025-5-25 10:32:34.279	WT901BLE68(801231B9234C)	-0.619	0.022	0.380	-26.978	27.832	-71.777	-73.64	-53.99	-81.09	-44.296	3.038	20.874	-0.54529	0.57361	0.09189	0.60422	24.4	13111	100
2025-5-25 10:32:34.280	WT901BLE68(801231B9234C)	0.459	0.450	0.308	-15.930	-41.626	-17.029	-73.89	-54.63	-80.79	-44.296	3.038	20.874	-0.54529	0.57361	0.09189	0.60422	24.4	13111	100
2025-5-25 10:32:34.311	WT901BLE68(801231B9234C)	0.882	0.321	0.135	4.517	-74.646	31.372	-75.57	-54.54	-78.45	-44.296	3.038	20.874	-0.54529	0.57361	0.09189	0.60422	24.4	13111	100
2025-5-25 10:32:34.311	WT901BLE68(801231B9234C)	0.376	-0.334	0.479	54.321	-21.240	17.822	-75.83	-54.26	-76.61	-44.296	3.038	20.874	-0.54529	0.57361	0.09189	0.60422	24.4	13111	100
2025-5-25 10:32:34.369	WT901BLE68(801231B9234C)	0.186	-1.030	0.857	51.025	34.607	14.587	-73.77	-53.72	-77.21	-44.296	3.038	20.874	-0.39484	0.63605	-0.04083	0.66165	24.4	13111	100
2025-5-25 10:32:34.369	WT901BLE68(801231B9234C)	1.475	-0.528	0.787	55.054	9.705	-14.709	-71.43	-53.48	-78.25	-44.296	3.038	20.874	-0.39484	0.63605	-0.04083	0.66165	24.4	13111	100
2025-5-25 10:32:34.398	WT901BLE68(801231B9234C)	2.611	0.074	0.034	52.124	-119.995	-25.818	-71.66	-54.07	-76.22	-44.296	3.038	20.874	-0.39484	0.63605	-0.04083	0.66165	24.4	13111	100
2025-5-25 10:32:34.398	WT901BLE68(801231B9234C)	2.917	-0.925	-0.345	123.657	-132.690	-79.468	-72.82	-56.41	-72.11	-44.296	3.038	20.874	-0.39484	0.63605	-0.04083	0.66165	24.4	13111	100
2025-5-25 10:32:34.429	WT901BLE68(801231B9234C)	2.070	-1.382	-0.103	149.597	-10.193	-6.165	-71.63	-57.47	-70.18	-44.296	3.038	20.874	-0.39484	0.63605	-0.04083	0.66165	24.4	13111	100
2025-5-25 10:32:34.429	WT901BLE68(801231B9234C)	1.725	-0.345	-0.034	138.245	82.153	-1.221	-66.92	-57.15	-72.16	-44.296	3.038	20.874	-0.39484	0.63605	-0.04083	0.66165	24.4	13111	100
2025-5-25 10:32:34.491	WT901BLE68(801231B9234C)	1.688	-0.069	0.027	135.437	28.870	5.859	-62.76	-56.70	-73.81	-44.296	3.038	20.874	-0.39484	0.63605	-0.04083	0.66165	24.4	13111	100
2025-5-25 10:32:34.491	WT901BLE68(801231B9234C)	1.619	-0.224	0.265	142.517	-69.519	2.747	-61.07	-57.26	-72.44	-44.296	3.038	20.874	-0.39484	0.63605	-0.04083	0.66165	24.4	13111	100
2025-5-25 10:32:34.522	WT901BLE68(801231B9234C)	0.869	-0.192	0.121	133.728	-49.927	52.246	-60.69	-57.58	-69.47	-44.296	3.038	20.874	-0.39484	0.63605	-0.04083	0.66165	24.4	13111	100
2025-5-25 10:32:34.522	WT901BLE68(801231B9234C)	0.389	-0.072	-0.291	114.197	10.193	78.979	-59.62	-56.63	-67.73	-44.590	0.196	19.306	-0.39484	0.63605	-0.04083	0.66165	24.4	13111	100
2025-5-25 10:32:34.550	WT901BLE68(801231B9234C)	-0.219	-0.088	-0.493	132.019	-0.671	96.252	-58.58	-55.38	-65.98	-44.590	0.196	19.306	-0.39484	0.63605	-0.04083	0.66165	24.4	13111	100
2025-5-25 10:32:34.550	WT901BLE68(801231B9234C)	-1.114	0.058	-0.465	138.062	15.198	84.656	-57.46	-54.15	-64.07	-44.590	0.196	19.306	-0.39484	0.63605	-0.04083	0.66165	24.4	13111	100
2025-5-25 10:32:34.609	WT901BLE68(801231B9234C)	-0.999	0.308	-0.275	65.369	51.147	-17.822	-55.18	-53.51	-64.39	-44.590	0.196	19.306	-0.39484	0.63605	-0.04083	0.66165	24.4	13111	100
2025-5-25 10:32:34.610	WT901BLE68(801231B9234C)	0.666	0.431	-0.307	-0.488	-47.729	-51.147	-54.48	-54.71	-65.36	-44.590	0.196	19.306	-0.39484	0.63605	-0.04083	0.66165	24.4	13111	100
2025-5-25 10:32:34.641	WT901BLE68(801231B9234C)	1.786	0.393	-0.609	-62.073	-134.277	-27.100	-58.04	-56.32	-62.82	-44.590	0.196	19.306	-0.39484	0.63605	-0.04083	0.66165	24.4	13111	100
2025-5-25 10:32:34.641	WT901BLE68(801231B9234C)	1.504	-0.046	-0.715	-70.679	-97.107	-44.373	-61.06	-58.75	-59.46	-44.590	0.196	19.306	-0.39484	0.63605	-0.04083	0.66165	24.4	13111	100
2025-5-25 10:32:34.670	WT901BLE68(801231B9234C)	0.376	-0.466	-0.409	-73.364	70.923	60.303	-61.98	-58.66	-58.51	-44.590	0.196	19.306	-0.39484	0.63605	-0.04083	0.66165	24.4	13111	100
2025-5-25 10:32:34.670	WT901BLE68(801231B9234C)	0.504	-0.511	0.015	-129.883	114.136	14.771	-61.35	-57.34	-60.94	-44.590	0.196	19.306	-0.39484	0.63605	-0.04083	0.66165	24.4	13111	100
2025-5-25 10:32:34.731	WT901BLE68(801231B9234C)	2.493	-0.069	-0.126	-144.104	0.000	-18.677	-63.19	-57.52	-62.38	-44.590	0.196	19.306	-0.39484	0.63605	-0.04083	0.66165	24.4	13111	100
2025-5-25 10:32:34.731	WT901BLE68(801231B9234C)	2.668	-0.458	-0.419	-137.878	-79.346	11.353	-68.80	-58.51	-59.33	-44.590	0.196	19.306	-0.39484	0.63605	-0.04083	0.66165	24.4	13111	100
2025-5-25 10:32:34.760	WT901BLE68(801231B9234C)	1.851	-0.970	-0.433	-144.531	99.792	36.926	-71.58	-58.28	-59.54	-44.590	0.196	19.306	-0.47354	0.63782	0.09570	0.59973	24.4	13111	100
2025-5-25 10:32:34.760	WT901BLE68(801231B9234C)	1.583	-0.981	-0.057	-129.639	179.138	73.975	-70.38	-56.27	-64.02	-44.590	0.196	19.306	-0.47354	0.63782	0.09570	0.59973	24.4	13111	100
2025-5-25 10:32:34.790	WT901BLE68(801231B9234C)	1.491	-0.685	0.195	-126.709	182.800	96.436	-69.18	-53.55	-68.58	-44.590	0.196	19.306	-0.47354	0.63782	0.09570	0.59973	24.4	13111	100
2025-5-25 10:32:34.791	WT901BLE68(801231B9234C)	1.167	-0.641	0.451	-106.995	176.147	93.323	-68.32	-50.69	-72.48	-44.590	0.196	19.306	-0.47354	0.63782	0.09570	0.59973	24.4	13111	100
2025-5-25 10:32:34.849	WT901BLE68(801231B9234C)	0.701	-0.679	0.312	-56.213	154.724	96.313	-67.25	-48.07	-75.77	-44.590	0.196	19.306	-0.47354	0.63782	0.09570	0.59973	24.4	13111	100
2025-5-25 10:32:34.849	WT901BLE68(801231B9234C)	0.358	-0.346	0.324	-17.395	123.779	113.403	-66.11	-45.23	-77.95	-44.590	0.196	19.306	-0.47354	0.63782	0.09570	0.59973	24.4	13111	100
2025-5-25 10:32:34.878	WT901BLE68(801231B9234C)	-0.017	-0.047	0.062	15.747	71.594	136.353	-65.49	-42.46	-78.48	-44.590	0.196	19.306	-0.47354	0.63782	0.09570	0.59973	24.4	13111	100
2025-5-25 10:32:34.878	WT901BLE68(801231B9234C)	-0.495	0.139	-0.216	66.040	90.881	166.016	-64.57	-39.37	-78.24	-44.590	0.196	19.306	-0.47354	0.63782	0.09570	0.59973	24.4	13111	100
2025-5-25 10:32:34.910	WT901BLE68(801231B9234C)	-0.835	0.491	-0.438	158.447	187.561	208.374	-61.56	-35.12	-79.06	-44.590	0.196	19.306	-0.47354	0.63782	0.09570	0.59973	24.4	13111	100
2025-5-25 10:32:34.910	WT901BLE68(801231B9234C)	-0.809	0.916	-0.043	176.147	240.479	255.737	-56.47	-28.76	-80.25	-44.590	0.196	19.306	-0.47354	0.63782	0.09570	0.59973	24.4	13111	100
2025-5-25 10:32:34.969	WT901BLE68(801231B9234C)	-0.712	0.814	0.144	236.816	155.701	291.138	-51.14	-22.14	-79.30	-43.610	16.660	1.274	-0.47354	0.63782	0.09570	0.59973	24.4	13111	100
2025-5-25 10:32:34.970	WT901BLE68(801231B9234C)	-0.600	0.583	0.290	246.948	82.397	279.724	-45.78	-16.69	-76.95	-43.610	16.660	1.274	-0.47354	0.63782	0.09570	0.59973	24.4	13111	100
2025-5-25 10:32:34.998	WT901BLE68(801231B9234C)	-0.729	0.393	0.696	264.343	130.981	281.494	-40.08	-11.22	-74.34	-43.610	16.660	1.274	-0.47354	0.63782	0.09570	0.59973	24.4	13111	100
2025-5-25 10:32:34.998	WT901BLE68(801231B9234C)	-0.248	0.058	1.148	255.676	162.903	239.441	-34.48	-5.26	-72.22	-43.610	16.660	1.274	-0.47354	0.63782	0.09570	0.59973	24.4	13111	100
2025-5-25 10:32:35.28	WT901BLE68(801231B9234C)	-0.060	-0.185	1.207	274.780	202.637	287.598	-28.61	1.12	-69.57	-43.610	16.660	1.274	-0.47354	0.63782	0.09570	0.59973	24.4	13111	100
2025-5-25 10:32:35.29	WT901BLE68(801231B9234C)	-0.476	-0.411	1.179	287.048	282.715	327.515	-22.23	8.47	-65.81	-43.610	16.660	1.274	-0.47354	0.63782	0.09570	0.59973	24.4	13111	100
2025-5-25 10:32:35.87	WT901BLE68(801231B9234C)	-1.046	-0.321	1.283	285.767	415.161	351.135	-15.29	17.76	-61.33	-43.610	16.660	1.274	-0.47354	0.63782	0.09570	0.59973	24.4	13111	100
2025-5-25 10:32:35.88	WT901BLE68(801231B9234C)	-1.287	0.243	0.863	285.522	468.323	388.611	-7.08	27.87	-55.10	-43.610	16.660	1.274	-0.47354	0.63782	0.09570	0.59973	24.4	13111	100
2025-5-25 10:32:35.118	WT901BLE68(801231B9234C)	-1.651	0.850	0.962	234.009	490.234	447.449	3.39	37.85	-45.23	-43.610	16.660	1.274	-0.47354	0.63782	0.09570	0.59973	24.4	13111	100
2025-5-25 10:32:35.119	WT901BLE68(801231B9234C)	-1.757	0.818	1.124	152.649	440.186	464.233	16.48	45.23	-30.90	-43.610	16.660	1.274	-0.47354	0.63782	0.09570	0.59973	24.4	13111	100
2025-5-25 10:32:35.148	WT901BLE68(801231B9234C)	-1.760	0.423	0.904	106.140	332.092	433.472	30.65	48.34	-14.72	-43.610	16.660	1.274	-0.47354	0.63782	0.09570	0.59973	24.4	13111	100
2025-5-25 10:32:35.148	WT901BLE68(801231B9234C)	-1.643	-0.098	0.384	76.233	295.654	386.658	43.31	48.31	0.03	-43.610	16.660	1.274	-0.84833	-0.34128	-0.37552	0.15082	24.4	13111	100
2025-5-25 10:32:35.209	WT901BLE68(801231B9234C)	-1.530	-0.688	0.186	62.988	288.208	357.605	54.25	46.66	13.17	-43.610	16.660	1.274	-0.84833	-0.34128	-0.37552	0.15082	24.4	13111	100
2025-5-25 10:32:35.209	WT901BLE68(801231B9234C)	-1.784	-0.917	0.460	75.867	256.287	283.569	63.28	44.36	23.78	-43.610	16.660	1.274	-0.84833	-0.34128	-0.37552	0.15082	24.4	13111	100
2025-5-25 10:32:35.238	WT901BLE68(801231B9234C)	-1.763	-0.855	0.868	79.773	231.445	174.011	70.42	42.92	31.45	-43.610	16.660	1.274	-0.84833	-0.34128	-0.37552	0.15082	24.4	13111	100
2025-5-25 10:32:35.239	WT901BLE68(801231B9234C)	-1.286	-1.154	1.183	80.811	163.574	98.267	76.18	42.18	36.68	-43.610	16.660	1.274	-0.84833	-0.34128	-0.37552	0.15082	24.4	13111	100
2025-5-25 10:32:35.268	WT901BLE68(801231B9234C)	-1.234	-1.256	0.948	100.891	74.036	-4.883	80.51	42.57	38.95	-43.610	16.660	1.274	-0.84833	-0.34128	-0.37552	0.15082	24.4	13111	100
2025-5-25 10:32:35.268	WT901BLE68(801231B9234C)	-1.808	-1.031	0.814	112.122	33.875	-106.445	83.95	44.67	39.31	-43.610	16.660	1.274	-0.84833	-0.34128	-0.37552	0.15082	24.4	13111	100
2025-5-25 10:32:35.329	WT901BLE68(801231B9234C)	-1.891	-0.572	0.819	124.756	-10.803	-208.801	87.07	48.72	38.73	-43.610	16.660	1.274	-0.84833	-0.34128	-0.37552	0.15082	24.4	13111	100
2025-5-25 10:32:35.330	WT901BLE68(801231B9234C)	-1.713	-0.181	0.787	128.845	-105.835	-266.968	88.43	54.25	35.76	-43.610	16.660	1.274	-0.84833	-0.34128	-0.37552	0.15082	24.4	13111	100
2025-5-25 10:32:35.358	WT901BLE68(801231B9234C)	-2.204	0.131	0.495	137.512	-158.752	-278.259	87.13	60.26	29.63	40.866	-9.800	-19.110	-0.84833	-0.34128	-0.37552	0.15082	24.4	13111	100
2025-5-25 10:32:35.358	WT901BLE68(801231B9234C)	-2.940	0.111	0.369	115.662	-119.507	-270.996	83.84	66.01	21.89	40.866	-9.800	-19.110	-0.84833	-0.34128	-0.37552	0.15082	24.4	13111	100
2025-5-25 10:32:35.419	WT901BLE68(801231B9234C)	-3.447	0.116	0.503	104.431	-56.763	-273.682	80.94	71.61	15.38	40.866	-9.800	-19.110	-0.84833	-0.34128	-0.37552	0.15082	24.4	13111	100
2025-5-25 10:32:35.419	WT901BLE68(801231B9234C)	-3.691	0.628	0.449	68.420	-104.187	-262.268	73.09	76.81	4.62	40.866	-9.800	-19.110	-0.84833	-0.34128	-0.37552	0.15082	24.4	13111	100
2025-5-25 10:32:35.448	WT901BLE68(801231B9234C)	-2.720	0.714	0.209	23.132	-174.866	-232.544	51.30	79.83	-19.04	40.866	-9.800	-19.110	-0.84833	-0.34128	-0.37552	0.15082	24.4	13111	100
2025-5-25 10:32:35.448	WT901BLE68(801231B9234C)	-1.451	1.491	-0.122	67.322	-184.387	-179.260	24.58	79.25	-47.50	40.866	-9.800	-19.110	-0.84833	-0.34128	-0.37552	0.15082	24.4	13111	100
2025-5-25 10:32:35.479	WT901BLE68(801231B9234C)	-0.821	1.460	-0.426	71.960	-56.580	-140.076	8.88	77.93	-64.90	40.866	-9.800	-19.110	-0.84833	-0.34128	-0.37552	0.15082	24.4	13111	100
2025-5-25 10:32:35.479	WT901BLE68(801231B9234C)	-0.513	1.185	-0.427	93.445	86.060	-101.685	0.92	79.01	-74.53	40.866	-9.800	-19.110	-0.84833	-0.34128	-0.37552	0.15082	24.4	13111	100
2025-5-25 10:32:35.539	WT901BLE68(801231B9234C)	-0.204	0.981	-0.223	122.314	127.869	-68.115	-4.58	81.52	-82.18	40.866	-9.800	-19.110	-0.84833	-0.34128	-0.37552	0.15082	24.4	13111	100
2025-5-25 10:32:35.540	WT901BLE68(801231B9234C)	0.246	0.898	-0.047	131.897	57.495	-58.716	-10.13	83.37	-90.13	40.866	-9.800	-19.110	-0.84833	-0.34128	-0.37552	0.15082	24.4	13111	100
2025-5-25 10:32:35.568	WT901BLE68(801231B9234C)	0.767	1.028	-0.135	122.864	-45.227	-57.373	-13.82	83.22	-96.08	40.866	-9.800	-19.110	-0.55411	-0.42990	-0.50043	0.50754	24.4	13111	100
2025-5-25 10:32:35.568	WT901BLE68(801231B9234C)	0.989	1.187	-0.301	132.263	-71.655	-63.965	-14.90	81.83	-99.20	40.866	-9.800	-19.110	-0.55411	-0.42990	-0.50043	0.50754	24.4	13111	100
2025-5-25 10:32:35.610	WT901BLE68(801231B9234C)	0.809	1.226	-0.364	92.224	-72.144	-90.332	-17.76	80.54	-103.91	40.866	-9.800	-19.110	-0.55411	-0.42990	-0.50043	0.50754	24.4	13111	100
2025-5-25 10:32:35.610	WT901BLE68(801231B9234C)	0.478	1.022	-0.504	48.279	-41.016	-9.583	-16.67	79.80	-103.84	40.866	-9.800	-19.110	-0.55411	-0.42990	-0.50043	0.50754	24.4	13111	100
2025-5-25 10:32:35.659	WT901BLE68(801231B9234C)	0.451	1.098	-0.564	-24.353	9.583	119.690	-5.56	80.55	-92.36	40.866	-9.800	-19.110	-0.55411	-0.42990	-0.50043	0.50754	24.4	13111	100
2025-5-25 10:32:35.659	WT901BLE68(801231B9234C)	0.115	1.190	-0.526	-77.942	50.110	243.042	21.93	81.07	-63.01	40.866	-9.800	-19.110	-0.55411	-0.42990	-0.50043	0.50754	24.4	13111	100
2025-5-25 10:32:35.688	WT901BLE68(801231B9234C)	-0.987	1.143	-0.243	-130.493	120.728	287.598	54.84	78.92	-27.16	40.866	-9.800	-19.110	-0.55411	-0.42990	-0.50043	0.50754	24.4	13111	100
2025-5-25 10:32:35.688	WT901BLE68(801231B9234C)	-3.684	1.534	0.172	-242.310	166.809	292.908	75.01	74.26	-2.15	40.866	-9.800	-19.110	-0.55411	-0.42990	-0.50043	0.50754	24.4	13111	100
2025-5-25 10:32:35.720	WT901BLE68(801231B9234C)	-3.798	1.699	0.442	-335.205	156.860	304.810	82.85	68.70	12.98	40.866	-9.800	-19.110	-0.55411	-0.42990	-0.50043	0.50754	24.4	13111	100
2025-5-25 10:32:35.721	WT901BLE68(801231B9234C)	-3.093	0.696	0.909	-193.542	-53.589	362.732	81.49	61.34	17.09	40.866	-9.800	-19.110	-0.55411	-0.42990	-0.50043	0.50754	24.4	13111	100
2025-5-25 10:32:35.779	WT901BLE68(801231B9234C)	-2.800	1.154	1.001	-167.664	-6.042	274.109	78.56	55.09	17.82	37.240	-2.156	-25.774	-0.55411	-0.42990	-0.50043	0.50754	24.4	13111	100
2025-5-25 10:32:35.779	WT901BLE68(801231B9234C)	-2.328	0.554	0.781	-150.452	32.593	207.581	77.14	50.75	20.30	37.240	-2.156	-25.774	-0.55411	-0.42990	-0.50043	0.50754	24.4	13111	100
2025-5-25 10:32:35.809	WT901BLE68(801231B9234C)	-1.962	0.060	0.520	-112.732	43.335	191.956	76.44	47.30	22.70	37.240	-2.156	-25.774	-0.55411	-0.42990	-0.50043	0.50754	24.4	13111	100
2025-5-25 10:32:35.809	WT901BLE68(801231B9234C)	-1.575	-0.203	0.472	-119.690	60.608	191.772	76.10	44.09	25.36	37.240	-2.156	-25.774	-0.55411	-0.42990	-0.50043	0.50754	24.4	13111	100
2025-5-25 10:32:35.838	WT901BLE68(801231B9234C)	-1.163	-0.520	0.375	-114.868	29.358	160.889	75.23	41.25	27.30	37.240	-2.156	-25.774	-0.55411	-0.42990	-0.50043	0.50754	24.4	13111	100
2025-5-25 10:32:35.839	WT901BLE68(801231B9234C)	-0.816	-0.708	0.251	-112.000	0.366	135.132	73.85	38.97	28.08	37.240	-2.156	-25.774	-0.55411	-0.42990	-0.50043	0.50754	24.4	13111	100
2025-5-25 10:32:35.898	WT901BLE68(801231B9234C)	-0.397	-1.080	0.264	-109.497	-20.386	112.000	72.15	37.08	28.04	37.240	-2.156	-25.774	-0.55411	-0.42990	-0.50043	0.50754	24.4	13111	100
2025-5-25 10:32:35.898	WT901BLE68(801231B9234C)	-0.026	-1.330	0.268	-103.088	-57.251	64.758	70.20	35.78	27.08	37.240	-2.156	-25.774	-0.55411	-0.42990	-0.50043	0.50754	24.4	13111	100
2025-5-25 10:32:35.931	WT901BLE68(801231B9234C)	0.166	-1.527	0.119	-106.506	-86.914	-0.610	67.72	35.35	24.85	37.240	-2.156	-25.774	-0.55411	-0.42990	-0.50043	0.50754	24.4	13111	100
2025-5-25 10:32:35.932	WT901BLE68(801231B9234C)	-0.061	-2.427	0.066	-160.950	-48.401	-13.306	64.69	36.07	22.28	37.240	-2.156	-25.774	-0.55411	-0.42990	-0.50043	0.50754	24.4	13111	100
2025-5-25 10:32:35.961	WT901BLE68(801231B9234C)	-0.665	-2.646	0.088	-65.308	7.385	-104.675	62.78	38.18	20.63	37.240	-2.156	-25.774	-0.55411	-0.42990	-0.50043	0.50754	24.4	13111	100
2025-5-25 10:32:35.961	WT901BLE68(801231B9234C)	-1.036	-0.990	0.196	-2.930	10.315	-196.838	61.73	42.14	18.53	37.240	-2.156	-25.774	-0.81744	-0.42542	-0.38318	0.06250	24.4	13111	100
2025-5-25 10:32:36.18	WT901BLE68(801231B9234C)	-1.352	-0.641	0.306	-8.728	-39.734	-323.364	59.49	47.71	14.10	37.240	-2.156	-25.774	-0.81744	-0.42542	-0.38318	0.06250	24.4	13111	100
2025-5-25 10:32:36.19	WT901BLE68(801231B9234C)	-2.071	-0.427	0.495	-5.798	-59.692	-364.075	54.13	53.84	6.08	37.240	-2.156	-25.774	-0.81744	-0.42542	-0.38318	0.06250	24.4	13111	100
2025-5-25 10:32:36.48	WT901BLE68(801231B9234C)	-3.339	-0.749	0.925	-0.061	-29.114	-344.116	46.81	59.71	-3.64	37.240	-2.156	-25.774	-0.81744	-0.42542	-0.38318	0.06250	24.4	13111	100
2025-5-25 10:32:36.49	WT901BLE68(801231B9234C)	-4.408	-0.768	1.471	-35.400	-40.100	-338.684	36.62	64.40	-15.78	37.240	-2.156	-25.774	-0.81744	-0.42542	-0.38318	0.06250	24.4	13111	100
2025-5-25 10:32:36.78	WT901BLE68(801231B9234C)	-2.977	0.786	1.203	-35.645	-164.612	-302.124	21.67	65.90	-32.40	37.240	-2.156	-25.774	-0.81744	-0.42542	-0.38318	0.06250	24.4	13111	100
2025-5-25 10:32:36.78	WT901BLE68(801231B9234C)	-1.871	0.977	1.022	58.411	-214.417	-301.697	7.73	63.49	-48.69	37.240	-2.156	-25.774	-0.81744	-0.42542	-0.38318	0.06250	24.4	13111	100
2025-5-25 10:32:36.139	WT901BLE68(801231B9234C)	-1.116	1.343	0.503	140.076	-62.012	-233.032	-1.33	61.30	-61.52	37.240	-2.156	-25.774	-0.81744	-0.42542	-0.38318	0.06250	24.4	13111	100
2025-5-25 10:32:36.140	WT901BLE68(801231B9234C)	-0.999	1.814	0.427	121.643	166.321	-178.711	-5.95	63.00	-69.79	37.240	-2.156	-25.774	-0.81744	-0.42542	-0.38318	0.06250	24.4	13111	100
2025-5-25 10:32:36.168	WT901BLE68(801231B9234C)	-0.716	0.865	0.370	148.315	183.594	-119.751	-9.55	66.61	-76.74	22.148	15.974	-33.516	-0.81744	-0.42542	-0.38318	0.06250	24.4	13111	100
2025-5-25 10:32:36.168	WT901BLE68(801231B9234C)	-0.135	0.668	0.384	175.598	102.295	-67.627	-11.17	68.97	-81.78	22.148	15.974	-33.516	-0.81744	-0.42542	-0.38318	0.06250	24.4	13111	100
2025-5-25 10:32:36.198	WT901BLE68(801231B9234C)	0.598	0.864	0.086	170.349	14.709	-32.043	-10.00	69.81	-83.95	22.148	15.974	-33.516	-0.81744	-0.42542	-0.38318	0.06250	24.4	13111	100
2025-5-25 10:32:36.199	WT901BLE68(801231B9234C)	1.065	0.983	-0.341	169.556	-1.160	-20.264	-6.75	69.90	-83.96	22.148	15.974	-33.516	-0.81744	-0.42542	-0.38318	0.06250	24.4	13111	100
2025-5-25 10:32:36.259	WT901BLE68(801231B9234C)	1.034	1.063	-0.514	143.066	40.466	-33.997	-4.37	70.43	-84.33	22.148	15.974	-33.516	-0.81744	-0.42542	-0.38318	0.06250	24.4	13111	100
2025-5-25 10:32:36.260	WT901BLE68(801231B9234C)	0.789	0.809	-0.616	120.178	93.384	17.883	-0.76	72.26	-82.95	22.148	15.974	-33.516	-0.81744	-0.42542	-0.38318	0.06250	24.4	13111	100
2025-5-25 10:32:36.288	WT901BLE68(801231B9234C)	0.395	0.551	-0.352	102.844	78.247	118.591	9.18	74.13	-74.58	22.148	15.974	-33.516	-0.81744	-0.42542	-0.38318	0.06250	24.4	13111	100
2025-5-25 10:32:36.288	WT901BLE68(801231B9234C)	0.090	0.891	0.021	61.890	68.604	197.937	26.70	74.50	-57.91	22.148	15.974	-33.516	-0.81744	-0.42542	-0.38318	0.06250	24.4	13111	100
2025-5-25 10:32:36.320	WT901BLE68(801231B9234C)	-0.203	1.395	0.133	-12.451	41.565	252.747	44.36	72.40	-39.64	22.148	15.974	-33.516	-0.81744	-0.42542	-0.38318	0.06250	24.4	13111	100
2025-5-25 10:32:36.321	WT901BLE68(801231B9234C)	-1.201	1.550	0.178	-60.303	9.583	298.157	56.10	67.81	-26.08	22.148	15.974	-33.516	-0.81744	-0.42542	-0.38318	0.06250	24.4	13111	100
2025-5-25 10:32:36.379	WT901BLE68(801231B9234C)	-3.406	2.215	0.872	-175.598	-0.427	312.927	61.35	62.08	-17.28	22.148	15.974	-33.516	-0.70831	-0.50003	-0.36136	0.34290	24.4	13111	100
2025-5-25 10:32:36.379	WT901BLE68(801231B9234C)	-3.319	2.112	1.531	-178.772	44.128	312.256	62.98	56.62	-10.35	22.148	15.974	-33.516	-0.70831	-0.50003	-0.36136	0.34290	24.4	13111	100
2025-5-25 10:32:36.409	WT901BLE68(801231B9234C)	-2.979	1.676	1.710	-125.610	-10.803	324.768	64.43	50.65	-4.69	22.148	15.974	-33.516	-0.70831	-0.50003	-0.36136	0.34290	24.4	13111	100
2025-5-25 10:32:36.409	WT901BLE68(801231B9234C)	-2.274	1.482	1.453	-127.075	67.017	229.614	64.96	46.08	-0.31	22.148	15.974	-33.516	-0.70831	-0.50003	-0.36136	0.34290	24.4	13111	100
2025-5-25 10:32:36.438	WT901BLE68(801231B9234C)	-2.025	0.620	1.127	-83.496	140.991	182.739	66.43	43.32	4.87	22.148	15.974	-33.516	-0.70831	-0.50003	-0.36136	0.34290	24.4	13111	100
2025-5-25 10:32:36.439	WT901BLE68(801231B9234C)	-1.867	-0.013	0.908	-65.125	186.462	155.273	68.80	41.65	10.67	22.148	15.974	-33.516	-0.70831	-0.50003	-0.36136	0.34290	24.4	13111	100
2025-5-25 10:32:36.498	WT901BLE68(801231B9234C)	-1.479	-0.471	0.710	-72.632	157.227	160.645	70.98	39.93	16.22	22.148	15.974	-33.516	-0.70831	-0.50003	-0.36136	0.34290	24.4	13111	100
2025-5-25 10:32:36.499	WT901BLE68(801231B9234C)	-1.058	-0.587	0.411	-88.196	69.641	125.977	71.33	38.28	19.38	22.148	15.974	-33.516	-0.70831	-0.50003	-0.36136	0.34290	24.4	13111	100
2025-5-25 10:32:36.531	WT901BLE68(801231B9234C)	-0.636	-0.888	0.231	-101.196	32.410	107.483	70.46	36.79	20.78	22.148	15.974	-33.516	-0.70831	-0.50003	-0.36136	0.34290	24.4	13111	100
2025-5-25 10:32:36.532	WT901BLE68(801231B9234C)	-0.275	-1.268	0.289	-106.934	15.503	77.759	69.08	35.77	21.41	22.148	15.974	-33.516	-0.70831	-0.50003	-0.36136	0.34290	24.4	13111	100
2025-5-25 10:32:36.561	WT901BLE68(801231B9234C)	-0.098	-1.620	0.331	-129.700	-1.404	28.564	67.18	35.49	21.21	22.148	15.974	-33.516	-0.70831	-0.50003	-0.36136	0.34290	24.4	13111	100
2025-5-25 10:32:36.561	WT901BLE68(801231B9234C)	0.095	-2.048	0.216	-151.550	-11.597	-58.716	64.36	36.52	20.04	32.732	-6.664	-29.792	-0.70831	-0.50003	-0.36136	0.34290	24.4	13111	100
2025-5-25 10:32:36.619	WT901BLE68(801231B9234C)	-0.668	4.824	-1.112	-115.479	57.129	-95.947	61.79	38.81	19.35	32.732	-6.664	-29.792	-0.70831	-0.50003	-0.36136	0.34290	24.4	13111	100
2025-5-25 10:32:36.619	WT901BLE68(801231B9234C)	-0.990	-1.481	0.050	-40.161	111.084	-243.896	60.86	43.91	18.84	32.732	-6.664	-29.792	-0.70831	-0.50003	-0.36136	0.34290	24.4	13111	100
2025-5-25 10:32:36.648	WT901BLE68(801231B9234C)	-1.648	-1.328	1.004	78.247	76.172	-365.662	60.38	51.23	16.00	32.732	-6.664	-29.792	-0.70831	-0.50003	-0.36136	0.34290	24.4	13111	100
2025-5-25 10:32:36.648	WT901BLE68(801231B9234C)	-1.438	-0.486	1.694	5.859	-124.634	-526.550	53.09	59.67	5.36	32.732	-6.664	-29.792	-0.70831	-0.50003	-0.36136	0.34290	24.4	13111	100
2025-5-25 10:32:36.679	WT901BLE68(801231B9234C)	-2.520	-0.147	1.556	17.883	-248.962	-490.417	33.54	64.40	-17.92	32.732	-6.664	-29.792	-0.70831	-0.50003	-0.36136	0.34290	24.4	13111	100
2025-5-25 10:32:36.679	WT901BLE68(801231B9234C)	-2.867	-1.236	1.842	-22.522	-326.660	-452.393	11.18	63.02	-43.51	32.732	-6.664	-29.792	-0.70831	-0.50003	-0.36136	0.34290	24.4	13111	100
2025-5-25 10:32:36.742	WT901BLE68(801231B9234C)	-3.528	-0.985	2.570	-79.407	-284.546	-373.169	-4.93	57.47	-61.65	32.732	-6.664	-29.792	-0.70831	-0.50003	-0.36136	0.34290	24.4	13111	100
2025-5-25 10:32:36.742	WT901BLE68(801231B9234C)	-3.439	-0.506	2.864	-154.846	-102.844	-413.879	-17.45	52.52	-74.17	32.732	-6.664	-29.792	-0.70831	-0.50003	-0.36136	0.34290	24.4	13111	100
2025-5-25 10:32:36.771	WT901BLE68(801231B9234C)	-2.938	-0.066	2.381	-212.463	-53.711	-461.365	-30.50	47.86	-86.14	32.732	-6.664	-29.792	-0.70831	-0.50003	-0.36136	0.34290	24.4	13111	100
2025-5-25 10:32:36.772	WT901BLE68(801231B9234C)	-1.700	0.198	1.683	-227.783	-129.150	-423.645	-40.84	41.30	-94.34	32.732	-6.664	-29.792	-0.67365	0.01663	-0.46140	0.57700	24.4	13111	100
2025-5-25 10:32:36.809	WT901BLE68(801231B9234C)	-0.691	0.274	1.061	-223.389	-154.053	-300.598	-47.55	34.42	-97.75	32.732	-6.664	-29.792	-0.67365	0.01663	-0.46140	0.57700	24.4	13111	100
2025-5-25 10:32:36.809	WT901BLE68(801231B9234C)	-0.188	0.287	0.704	-224.182	-108.398	-256.226	-52.80	29.04	-99.26	32.732	-6.664	-29.792	-0.67365	0.01663	-0.46140	0.57700	24.4	13111	100
2025-5-25 10:32:36.859	WT901BLE68(801231B9234C)	-0.122	0.282	0.468	-199.097	-20.447	-247.681	-57.74	24.79	-101.06	32.732	-6.664	-29.792	-0.67365	0.01663	-0.46140	0.57700	24.4	13111	100
2025-5-25 10:32:36.859	WT901BLE68(801231B9234C)	-0.183	0.564	0.235	-153.015	63.660	-264.099	-62.17	21.28	-104.14	32.732	-6.664	-29.792	-0.67365	0.01663	-0.46140	0.57700	24.4	13111	100
2025-5-25 10:32:36.918	WT901BLE68(801231B9234C)	-0.205	0.704	0.124	-93.750	64.087	-262.695	-65.44	17.79	-107.59	32.732	-6.664	-29.792	-0.67365	0.01663	-0.46140	0.57700	24.4	13111	100
2025-5-25 10:32:36.918	WT901BLE68(801231B9234C)	-0.161	0.709	-0.196	-47.424	-19.043	-232.910	-67.06	14.13	-109.58	32.732	-6.664	-29.792	-0.67365	0.01663	-0.46140	0.57700	24.4	13111	100
2025-5-25 10:32:36.950	WT901BLE68(801231B9234C)	-0.497	0.783	-0.331	-3.662	-104.797	-164.795	-67.15	10.81	-109.36	32.732	-6.664	-29.792	-0.67365	0.01663	-0.46140	0.57700	24.4	13111	100
2025-5-25 10:32:36.951	WT901BLE68(801231B9234C)	-0.574	0.773	-0.118	36.743	-133.240	-81.543	-66.12	8.66	-107.59	32.732	-6.664	-29.792	-0.67365	0.01663	-0.46140	0.57700	24.4	13111	100
2025-5-25 10:32:36.981	WT901BLE68(801231B9234C)	-0.229	0.599	-0.024	70.374	-107.788	-33.020	-64.32	7.71	-105.56	32.732	-6.664	-29.792	-0.67365	0.01663	-0.46140	0.57700	24.4	13111	100
2025-5-25 10:32:36.981	WT901BLE68(801231B9234C)	-0.196	0.371	0.400	113.831	-3.296	5.981	-61.80	8.13	-104.56	-29.890	32.732	-14.112	-0.67365	0.01663	-0.46140	0.57700	24.4	13111	100
2025-5-25 10:32:37.10	WT901BLE68(801231B9234C)	-0.143	-0.069	0.880	118.164	40.466	3.113	-59.04	9.43	-104.85	-29.890	32.732	-14.112	-0.67365	0.01663	-0.46140	0.57700	24.4	13111	100
2025-5-25 10:32:37.10	WT901BLE68(801231B9234C)	0.193	-0.685	1.091	122.742	-8.301	-11.902	-56.23	10.12	-104.78	-29.890	32.732	-14.112	-0.67365	0.01663	-0.46140	0.57700	24.4	13111	100
2025-5-25 10:32:37.69	WT901BLE68(801231B9234C)	0.660	-0.992	1.274	98.511	-78.674	14.343	-53.46	10.27	-103.46	-29.890	32.732	-14.112	-0.67365	0.01663	-0.46140	0.57700	24.4	13111	100
2025-5-25 10:32:37.70	WT901BLE68(801231B9234C)	0.892	-1.422	1.143	83.801	-100.281	8.850	-51.09	9.42	-101.26	-29.890	32.732	-14.112	-0.67365	0.01663	-0.46140	0.57700	24.4	13111	100
2025-5-25 10:32:37.98	WT901BLE68(801231B9234C)	0.884	-1.646	0.926	78.003	-40.344	23.254	-49.02	9.01	-99.57	-29.890	32.732	-14.112	-0.67365	0.01663	-0.46140	0.57700	24.4	13111	100
2025-5-25 10:32:37.98	WT901BLE68(801231B9234C)	0.728	-1.603	0.714	49.194	28.992	66.833	-47.03	9.75	-98.44	-29.890	32.732	-14.112	-0.67365	0.01663	-0.46140	0.57700	24.4	13111	100
2025-5-25 10:32:37.129	WT901BLE68(801231B9234C)	0.511	-1.144	0.491	69.458	17.761	73.547	-45.36	10.63	-97.48	-29.890	32.732	-14.112	-0.67365	0.01663	-0.46140	0.57700	24.4	13111	100
2025-5-25 10:32:37.129	WT901BLE68(801231B9234C)	0.544	-0.900	0.680	78.369	-48.828	97.778	-43.47	11.23	-95.64	-29.890	32.732	-14.112	-0.67365	0.01663	-0.46140	0.57700	24.4	13111	100
2025-5-25 10:32:37.189	WT901BLE68(801231B9234C)	0.851	-0.395	0.633	54.443	-161.865	116.577	-41.45	10.54	-92.04	-29.890	32.732	-14.112	-0.68793	0.19382	-0.28894	0.63687	24.4	13111	100
2025-5-25 10:32:37.189	WT901BLE68(801231B9234C)	0.830	-0.530	-0.137	26.245	-170.227	107.361	-40.21	8.81	-87.72	-29.890	32.732	-14.112	-0.68793	0.19382	-0.28894	0.63687	24.4	13111	100
2025-5-25 10:32:37.218	WT901BLE68(801231B9234C)	0.306	-0.578	-0.434	29.724	-27.710	78.491	-39.39	8.22	-85.09	-29.890	32.732	-14.112	-0.68793	0.19382	-0.28894	0.63687	24.4	13111	100
2025-5-25 10:32:37.218	WT901BLE68(801231B9234C)	-0.028	-0.167	-0.487	41.443	79.407	74.890	-39.07	9.28	-84.94	-29.890	32.732	-14.112	-0.68793	0.19382	-0.28894	0.63687	24.4	13111	100
2025-5-25 10:32:37.249	WT901BLE68(801231B9234C)	-0.102	-0.074	-0.250	29.724	122.498	69.824	-38.95	11.92	-85.97	-29.890	32.732	-14.112	-0.68793	0.19382	-0.28894	0.63687	24.4	13111	100
2025-5-25 10:32:37.249	WT901BLE68(801231B9234C)	0.461	-0.192	-0.139	-46.387	-4.333	-20.142	-40.00	12.58	-87.37	-29.890	32.732	-14.112	-0.68793	0.19382	-0.28894	0.63687	24.4	13111	100
2025-5-25 10:32:37.308	WT901BLE68(801231B9234C)	1.060	-0.329	-0.171	-90.149	-60.364	-42.725	-42.27	11.11	-88.13	-29.890	32.732	-14.112	-0.68793	0.19382	-0.28894	0.63687	24.4	13111	100
2025-5-25 10:32:37.309	WT901BLE68(801231B9234C)	0.676	-0.682	-0.054	-74.219	49.866	-62.134	-44.91	10.28	-89.91	-29.890	32.732	-14.112	-0.68793	0.19382	-0.28894	0.63687	24.4	13111	100
2025-5-25 10:32:37.341	WT901BLE68(801231B9234C)	-0.218	-1.106	0.447	-31.433	157.288	-74.646	-47.10	11.04	-93.76	-29.890	32.732	-14.112	-0.68793	0.19382	-0.28894	0.63687	24.4	13111	100
2025-5-25 10:32:37.341	WT901BLE68(801231B9234C)	0.354	-1.238	0.766	-74.707	43.762	-100.891	-49.38	10.74	-97.38	-29.890	32.732	-14.112	-0.68793	0.19382	-0.28894	0.63687	24.4	13111	100
2025-5-25 10:32:37.371	WT901BLE68(801231B9234C)	0.974	-1.468	0.935	-68.420	-28.748	-55.603	-51.30	9.02	-98.36	-29.890	32.732	-14.112	-0.68793	0.19382	-0.28894	0.63687	24.4	13111	100
2025-5-25 10:32:37.372	WT901BLE68(801231B9234C)	0.035	-2.094	1.391	-44.128	80.322	-72.632	-52.68	8.05	-99.63	-31.654	29.890	-16.660	-0.68793	0.19382	-0.28894	0.63687	24.4	13111	100
2025-5-25 10:32:37.429	WT901BLE68(801231B9234C)	-0.065	-2.145	1.325	-42.175	163.208	-92.957	-54.14	8.05	-102.90	-31.654	29.890	-16.660	-0.68793	0.19382	-0.28894	0.63687	24.4	13111	100
2025-5-25 10:32:37.429	WT901BLE68(801231B9234C)	-0.210	-1.640	1.421	-18.372	170.532	-83.496	-55.13	8.65	-106.57	-31.654	29.890	-16.660	-0.68793	0.19382	-0.28894	0.63687	24.4	13111	100
2025-5-25 10:32:37.458	WT901BLE68(801231B9234C)	0.210	-1.353	1.351	-3.967	72.876	-81.726	-55.76	8.26	-109.15	-31.654	29.890	-16.660	-0.68793	0.19382	-0.28894	0.63687	24.4	13111	100
2025-5-25 10:32:37.458	WT901BLE68(801231B9234C)	0.397	-0.776	1.336	10.071	11.353	-61.890	-55.80	7.20	-110.13	-31.654	29.890	-16.660	-0.68793	0.19382	-0.28894	0.63687	24.4	13111	100
2025-5-25 10:32:37.488	WT901BLE68(801231B9234C)	0.115	-0.313	1.211	13.306	17.151	-71.838	-55.53	6.10	-110.78	-31.654	29.890	-16.660	-0.68793	0.19382	-0.28894	0.63687	24.4	13111	100
2025-5-25 10:32:37.488	WT901BLE68(801231B9234C)	-0.087	0.124	0.529	14.099	31.616	-77.271	-55.22	4.98	-111.67	-31.654	29.890	-16.660	-0.68793	0.19382	-0.28894	0.63687	24.4	13111	100
2025-5-25 10:32:37.551	WT901BLE68(801231B9234C)	-0.597	0.264	0.262	40.527	64.270	-74.707	-54.57	4.22	-112.95	-31.654	29.890	-16.660	-0.68793	0.19382	-0.28894	0.63687	24.4	13111	100
2025-5-25 10:32:37.551	WT901BLE68(801231B9234C)	-0.647	0.123	0.175	46.204	49.805	-75.439	-53.52	3.64	-114.40	-31.654	29.890	-16.660	-0.68793	0.19382	-0.28894	0.63687	24.4	13111	100
2025-5-25 10:32:37.581	WT901BLE68(801231B9234C)	-0.340	0.227	0.257	26.123	32.043	-49.744	-52.67	3.21	-115.22	-31.654	29.890	-16.660	-0.68793	0.19382	-0.28894	0.63687	24.4	13111	100
2025-5-25 10:32:37.581	WT901BLE68(801231B9234C)	0.105	0.188	0.361	5.981	27.405	-19.165	-52.25	3.21	-115.64	-31.654	29.890	-16.660	-0.48834	0.21243	-0.37991	0.75626	24.4	13111	100
2025-5-25 10:32:37.610	WT901BLE68(801231B9234C)	-0.096	-0.043	0.547	12.756	42.175	4.822	-51.86	3.77	-115.71	-31.654	29.890	-16.660	-0.48834	0.21243	-0.37991	0.75626	24.4	13111	100
2025-5-25 10:32:37.610	WT901BLE68(801231B9234C)	-0.161	-0.327	0.821	45.349	101.624	11.597	-50.97	5.10	-116.41	-31.654	29.890	-16.660	-0.48834	0.21243	-0.37991	0.75626	24.4	13111	100
2025-5-25 10:32:37.669	WT901BLE68(801231B9234C)	0.038	-0.580	1.255	57.434	18.250	22.705	-49.64	6.28	-116.56	-31.654	29.890	-16.660	-0.48834	0.21243	-0.37991	0.75626	24.4	13111	100
2025-5-25 10:32:37.669	WT901BLE68(801231B9234C)	0.108	-0.502	1.533	64.880	-28.503	41.687	-48.03	6.70	-115.38	-31.654	29.890	-16.660	-0.48834	0.21243	-0.37991	0.75626	24.4	13111	100
2025-5-25 10:32:37.698	WT901BLE68(801231B9234C)	1.057	-0.486	1.596	50.598	-48.828	41.626	-46.47	6.83	-113.76	-31.654	29.890	-16.660	-0.48834	0.21243	-0.37991	0.75626	24.4	13111	100
2025-5-25 10:32:37.699	WT901BLE68(801231B9234C)	0.422	-1.484	1.897	41.138	-26.794	45.654	-45.19	7.16	-111.98	-31.654	29.890	-16.660	-0.48834	0.21243	-0.37991	0.75626	24.4	13111	100
2025-5-25 10:32:37.728	WT901BLE68(801231B9234C)	0.488	-1.544	1.095	35.156	21.606	59.631	-44.37	7.38	-110.98	-31.654	29.890	-16.660	-0.48834	0.21243	-0.37991	0.75626	24.4	13111	100
2025-5-25 10:32:37.729	WT901BLE68(801231B9234C)	0.265	-0.930	1.042	29.968	60.059	74.951	-43.51	9.00	-110.43	-31.654	29.890	-16.660	-0.48834	0.21243	-0.37991	0.75626	24.4	13111	100
2025-5-25 10:32:37.789	WT901BLE68(801231B9234C)	0.931	-0.923	1.078	3.174	-82.092	72.327	-42.93	9.41	-108.84	-31.654	29.890	-16.660	-0.48834	0.21243	-0.37991	0.75626	24.4	13111	100
2025-5-25 10:32:37.789	WT901BLE68(801231B9234C)	0.665	-0.428	1.072	-22.827	-90.576	121.216	-42.69	8.99	-105.76	-31.654	29.890	-16.660	-0.48834	0.21243	-0.37991	0.75626	24.4	13111	100
2025-5-25 10:32:37.818	WT901BLE68(801231B9234C)	-0.005	0.003	0.693	-29.297	18.982	159.485	-42.73	10.38	-102.94	-29.694	19.502	-26.950	-0.48834	0.21243	-0.37991	0.75626	24.4	13111	100
2025-5-25 10:32:37.818	WT901BLE68(801231B9234C)	0.192	0.527	0.092	-25.146	60.608	180.481	-42.64	13.04	-100.78	-29.694	19.502	-26.950	-0.48834	0.21243	-0.37991	0.75626	24.4	13111	100
2025-5-25 10:32:37.848	WT901BLE68(801231B9234C)	0.351	0.410	-0.345	-43.152	-12.085	217.712	-42.46	15.84	-97.36	-29.694	19.502	-26.950	-0.48834	0.21243	-0.37991	0.75626	24.4	13111	100
2025-5-25 10:32:37.849	WT901BLE68(801231B9234C)	0.270	0.500	-0.708	-6.531	-30.945	219.238	-41.33	17.89	-92.68	-29.694	19.502	-26.950	-0.48834	0.21243	-0.37991	0.75626	24.4	13111	100
2025-5-25 10:32:37.909	WT901BLE68(801231B9234C)	0.370	0.427	-0.885	2.563	11.108	217.346	-39.36	20.43	-87.88	-29.694	19.502	-26.950	-0.48834	0.21243	-0.37991	0.75626	24.4	13111	100
2025-5-25 10:32:37.909	WT901BLE68(801231B9234C)	0.529	0.083	-1.130	6.836	80.200	208.984	-37.78	23.64	-84.28	-29.694	19.502	-26.950	-0.48834	0.21243	-0.37991	0.75626	24.4	13111	100
2025-5-25 10:32:37.940	WT901BLE68(801231B9234C)	0.538	-0.386	-1.242	9.094	220.215	190.674	-38.43	28.90	-84.13	-29.694	19.502	-26.950	-0.48834	0.21243	-0.37991	0.75626	24.4	13111	100
2025-5-25 10:32:37.941	WT901BLE68(801231B9234C)	0.158	-1.092	-1.019	29.480	422.546	156.799	-40.65	36.66	-87.31	-29.694	19.502	-26.950	-0.48834	0.21243	-0.37991	0.75626	24.4	13111	100
2025-5-25 10:32:37.971	WT901BLE68(801231B9234C)	-1.148	-1.914	0.286	62.317	513.489	128.784	-45.14	46.14	-94.87	-29.694	19.502	-26.950	-0.48834	0.21243	-0.37991	0.75626	24.4	13111	100
2025-5-25 10:32:37.971	WT901BLE68(801231B9234C)	-1.539	-2.318	0.884	12.634	360.107	44.800	-52.26	52.12	-104.20	-29.694	19.502	-26.950	-0.64740	-0.06754	-0.55035	0.52280	24.4	13111	100
2025-5-25 10:32:38.28	WT901BLE68(801231B9234C)	-1.873	-3.196	0.475	-3.479	208.679	-35.950	-59.27	54.42	-112.69	-29.694	19.502	-26.950	-0.64740	-0.06754	-0.55035	0.52280	24.4	13111	100
2025-5-25 10:32:38.28	WT901BLE68(801231B9234C)	-2.457	-2.531	0.734	13.672	222.412	-72.693	-65.80	55.18	-121.02	-29.694	19.502	-26.950	-0.64740	-0.06754	-0.55035	0.52280	24.4	13111	100
2025-5-25 10:32:38.58	WT901BLE68(801231B9234C)	-2.072	-1.907	1.226	90.881	167.175	-69.397	-70.80	54.97	-128.92	-29.694	19.502	-26.950	-0.64740	-0.06754	-0.55035	0.52280	24.4	13111	100
2025-5-25 10:32:38.58	WT901BLE68(801231B9234C)	-1.667	-1.397	0.976	95.337	103.088	-66.162	-72.66	54.19	-133.60	-29.694	19.502	-26.950	-0.64740	-0.06754	-0.55035	0.52280	24.4	13111	100
2025-5-25 10:32:38.88	WT901BLE68(801231B9234C)	-1.486	-0.772	0.849	88.928	96.252	-59.814	-73.87	53.26	-137.50	-29.694	19.502	-26.950	-0.64740	-0.06754	-0.55035	0.52280	24.4	13111	100
2025-5-25 10:32:38.89	WT901BLE68(801231B9234C)	-1.011	-0.540	0.401	117.859	87.585	38.391	-73.99	53.56	-140.09	-29.694	19.502	-26.950	-0.64740	-0.06754	-0.55035	0.52280	24.4	13111	100
2025-5-25 10:32:38.149	WT901BLE68(801231B9234C)	-0.404	-0.206	0.188	159.912	77.881	88.562	-72.69	55.27	-141.84	-29.694	19.502	-26.950	-0.64740	-0.06754	-0.55035	0.52280	24.4	13111	100
2025-5-25 10:32:38.150	WT901BLE68(801231B9234C)	-0.027	0.233	0.037	210.815	100.647	116.028	-70.15	57.86	-143.36	-29.694	19.502	-26.950	-0.64740	-0.06754	-0.55035	0.52280	24.4	13111	100
2025-5-25 10:32:38.179	WT901BLE68(801231B9234C)	0.513	1.609	-0.190	189.026	141.357	172.119	-67.97	61.36	-145.65	-29.694	19.502	-26.950	-0.64740	-0.06754	-0.55035	0.52280	24.4	13111	100
2025-5-25 10:32:38.179	WT901BLE68(801231B9234C)	0.664	1.917	-0.308	170.105	213.806	215.271	-68.20	66.71	-149.38	19.306	25.088	-31.262	-0.64740	-0.06754	-0.55035	0.52280	24.4	13111	100
2025-5-25 10:32:38.211	WT901BLE68(801231B9234C)	0.361	1.875	-0.470	162.476	195.068	151.917	-71.27	71.87	-155.79	19.306	25.088	-31.262	-0.64740	-0.06754	-0.55035	0.52280	24.4	13111	100
2025-5-25 10:32:38.211	WT901BLE68(801231B9234C)	-0.174	1.784	-0.346	92.407	169.128	171.387	-78.05	76.72	-164.87	19.306	25.088	-31.262	-0.64740	-0.06754	-0.55035	0.52280	24.4	13111	100
2025-5-25 10:32:38.269	WT901BLE68(801231B9234C)	-0.091	1.816	-0.545	47.668	117.615	211.365	-89.24	81.70	-177.17	19.306	25.088	-31.262	-0.64740	-0.06754	-0.55035	0.52280	24.4	13111	100
2025-5-25 10:32:38.269	WT901BLE68(801231B9234C)	0.258	1.818	-0.815	-39.612	46.448	342.834	-126.26	87.70	146.29	19.306	25.088	-31.262	-0.64740	-0.06754	-0.55035	0.52280	24.4	13111	100
2025-5-25 10:32:38.298	WT901BLE68(801231B9234C)	-0.719	1.786	-0.586	-70.374	60.608	459.045	112.54	83.01	26.54	19.306	25.088	-31.262	-0.64740	-0.06754	-0.55035	0.52280	24.4	13111	100
2025-5-25 10:32:38.298	WT901BLE68(801231B9234C)	-4.290	2.694	-0.211	-84.839	176.086	469.482	107.56	72.53	23.36	19.306	25.088	-31.262	-0.64740	-0.06754	-0.55035	0.52280	24.4	13111	100
2025-5-25 10:32:38.361	WT901BLE68(801231B9234C)	-4.237	3.852	-0.724	-164.673	228.699	497.803	108.31	61.74	27.16	19.306	25.088	-31.262	-0.64740	-0.06754	-0.55035	0.52280	24.4	13111	100
2025-5-25 10:32:38.361	WT901BLE68(801231B9234C)	-2.819	2.889	0.197	-79.163	121.216	642.883	104.79	49.02	26.22	19.306	25.088	-31.262	-0.64740	-0.06754	-0.55035	0.52280	24.4	13111	100
2025-5-25 10:32:38.390	WT901BLE68(801231B9234C)	-4.653	3.255	0.923	-33.081	449.036	391.052	107.05	37.20	31.16	19.306	25.088	-31.262	-0.64740	-0.06754	-0.55035	0.52280	24.4	13111	100
2025-5-25 10:32:38.391	WT901BLE68(801231B9234C)	-3.011	2.141	0.489	-61.829	408.997	143.982	110.38	30.43	39.59	19.306	25.088	-31.262	-0.57867	-0.69913	-0.41907	-0.02481	24.4	13111	100
2025-5-25 10:32:38.420	WT901BLE68(801231B9234C)	-2.033	0.706	0.160	-89.417	181.274	95.459	110.92	26.63	44.23	19.306	25.088	-31.262	-0.57867	-0.69913	-0.41907	-0.02481	24.4	13111	100
2025-5-25 10:32:38.420	WT901BLE68(801231B9234C)	-1.587	0.178	-0.075	-104.614	78.979	75.684	109.40	24.77	45.55	19.306	25.088	-31.262	-0.57867	-0.69913	-0.41907	-0.02481	24.4	13111	100
2025-5-25 10:32:38.479	WT901BLE68(801231B9234C)	-1.379	-0.181	-0.146	-95.947	54.626	74.402	107.81	23.44	45.98	19.306	25.088	-31.262	-0.57867	-0.69913	-0.41907	-0.02481	24.4	13111	100
2025-5-25 10:32:38.479	WT901BLE68(801231B9234C)	-1.100	-0.610	-0.083	-119.141	38.818	88.196	105.88	22.08	45.76	19.306	25.088	-31.262	-0.57867	-0.69913	-0.41907	-0.02481	24.4	13111	100
2025-5-25 10:32:38.508	WT901BLE68(801231B9234C)	-0.797	-1.035	0.128	-134.521	31.982	104.431	103.67	20.43	45.27	19.306	25.088	-31.262	-0.57867	-0.69913	-0.41907	-0.02481	24.4	13111	100
2025-5-25 10:32:38.509	WT901BLE68(801231B9234C)	-0.613	-1.456	0.311	-138.977	2.014	79.163	101.33	19.04	44.42	19.306	25.088	-31.262	-0.57867	-0.69913	-0.41907	-0.02481	24.4	13111	100
2025-5-25 10:32:38.537	WT901BLE68(801231B9234C)	-0.538	-1.860	0.301	-122.375	-14.587	30.334	99.22	18.71	43.21	19.306	25.088	-31.262	-0.57867	-0.69913	-0.41907	-0.02481	24.4	13111	100
2025-5-25 10:32:38.538	WT901BLE68(801231B9234C)	-0.563	-2.176	0.169	-91.492	43.518	-19.348	98.05	19.24	43.04	19.306	25.088	-31.262	-0.57867	-0.69913	-0.41907	-0.02481	24.4	13111	100
2025-5-25 10:32:38.607	WT901BLE68(801231B9234C)	-1.016	-2.027	-0.129	-15.686	85.999	-71.594	98.56	20.63	44.31	19.306	25.088	-31.262	-0.57867	-0.69913	-0.41907	-0.02481	24.4	13111	100
2025-5-25 10:32:38.608	WT901BLE68(801231B9234C)	-1.716	-1.314	0.033	52.002	21.545	-136.780	100.65	23.20	45.54	19.306	25.088	-31.262	-0.57867	-0.69913	-0.41907	-0.02481	24.4	13111	100
2025-5-25 10:32:38.628	WT901BLE68(801231B9234C)	-2.021	-0.729	0.147	146.851	-59.326	-236.023	103.85	27.85	45.46	37.534	-29.694	-13.328	-0.57867	-0.69913	-0.41907	-0.02481	24.4	13111	100
2025-5-25 10:32:38.629	WT901BLE68(801231B9234C)	-2.020	-0.214	0.206	135.010	-169.983	-351.074	107.21	35.14	44.50	37.534	-29.694	-13.328	-0.57867	-0.69913	-0.41907	-0.02481	24.4	13111	100
2025-5-25 10:32:38.658	WT901BLE68(801231B9234C)	-3.243	0.098	0.022	141.235	-234.680	-369.141	109.39	44.02	41.86	37.534	-29.694	-13.328	-0.57867	-0.69913	-0.41907	-0.02481	24.4	13111	100
2025-5-25 10:32:38.658	WT901BLE68(801231B9234C)	-4.765	0.304	0.218	120.239	-178.406	-383.179	111.76	52.99	40.26	37.534	-29.694	-13.328	-0.57867	-0.69913	-0.41907	-0.02481	24.4	13111	100
2025-5-25 10:32:38.719	WT901BLE68(801231B9234C)	-5.461	0.958	0.388	57.434	-236.938	-397.705	113.20	62.15	38.92	37.534	-29.694	-13.328	-0.57867	-0.69913	-0.41907	-0.02481	24.4	13111	100
2025-5-25 10:32:38.719	WT901BLE68(801231B9234C)	-4.025	2.507	0.180	-52.429	-417.542	-363.770	103.13	72.04	27.59	37.534	-29.694	-13.328	-0.57867	-0.69913	-0.41907	-0.02481	24.4	13111	100
2025-5-25 10:32:38.751	WT901BLE68(801231B9234C)	-1.970	2.622	0.344	-42.603	-448.914	-352.905	66.95	78.71	-9.14	37.534	-29.694	-13.328	-0.57867	-0.69913	-0.41907	-0.02481	24.4	13111	100
2025-5-25 10:32:38.751	WT901BLE68(801231B9234C)	-1.074	2.768	-0.515	-16.235	-230.591	-313.782	20.92	78.54	-55.95	37.534	-29.694	-13.328	-0.57867	-0.69913	-0.41907	-0.02481	24.4	13111	100
